# Acce x,Acce y,Acce z,Gyro x,Gyro y,Gyro z,Magn x,Magn y,Magn z,Position x,Position y,Position z,Voltage,UWB ID,UWB distande
4,-132,-7984,-60,115,41,-6146,-10240,-13827,2379,1479,-102,7322,33,2364
12,-208,-7984,-78,85,25,-9986,-10240,-11523,2340,1435,-51,7322,33,2374
-4,-88,-7980,-64,102,27,-6658,-10240,-15107,2378,1500,-75,7322,33,2364
12,-136,-8008,-71,87,18,-7938,-12800,-12035,2360,1476,-89,7322,33,2364
44,-136,-8000,-80,76,34,-8450,-11264,-15619,2359,1423,-123,7322,33,2402
44,-136,-8000,-80,76,34,-8450,-11264,-15619,2359,1423,-123,7322,33,2402
44,-136,-8000,-80,76,34,-8450,-11264,-15619,2367,1438,-140,7322,0,0
-8,-172,-8036,-53,67,0,-6658,-11520,-12547,2346,1462,-110,7322,33,2383
-8,-144,-8036,-66,92,37,-6146,-10240,-13827,2348,1479,-103,7322,33,2345
-8,-144,-8036,-66,92,37,-6146,-10240,-13827,2348,1479,-103,7322,33,2345
-8,-144,-8036,-66,92,37,-6146,-10240,-13827,2348,1479,-103,7322,33,2345
-8,-144,-8036,-66,92,37,-6146,-10240,-13827,2348,1479,-103,7322,33,2345
64,-108,-8012,-76,93,10,-10498,-11520,-13315,2363,1452,-78,7322,33,2392
64,-108,-8012,-76,93,10,-10498,-11520,-13315,2363,1452,-78,7322,33,2402
40,-148,-7964,-82,88,20,-5890,-11264,-11779,2363,1452,-78,7322,33,2402
40,-148,-7964,-82,88,20,-5890,-11264,-11779,2368,1482,-121,7322,33,2402
40,-148,-7964,-82,88,20,-5890,-11264,-11779,2368,1482,-121,7322,33,2383
40,-148,-7964,-82,88,20,-5890,-11264,-11779,2352,1448,-118,7322,33,2383
-8,-120,-7992,-67,81,56,-6146,-10240,-13827,2352,1448,-118,7322,33,2383
4,-128,-8028,-83,95,32,-6146,-9472,-13827,2352,1448,-118,7322,33,2355
28,-108,-7996,-41,91,22,-9986,-11520,-12547,2352,1448,-118,7322,33,2392
28,-108,-7996,-41,91,22,-9986,-11520,-12547,2352,1448,-118,7322,33,2392
28,-108,-7996,-41,91,22,-9986,-11520,-12547,2352,1448,-118,7322,33,2392
12,-100,-8000,-51,94,34,-7426,-11520,-12547,2343,1453,-97,7322,0,0
44,-188,-7972,-86,82,28,-8450,-11264,-16131,2343,1453,-97,7322,33,2374
-36,-176,-8012,-89,100,24,-6402,-9984,-12291,2378,1478,-94,7322,33,2364
-36,-176,-8012,-89,100,24,-6402,-9984,-12291,2378,1478,-94,7322,33,2364
8,-156,-7924,-76,87,21,-3586,-13568,-14595,2358,1486,-88,7322,33,2364
-32,-184,-8024,-81,83,42,-7682,-9984,-11011,2357,1467,-73,7322,33,2364
32,-144,-7984,-71,69,26,-8962,-13312,-15619,2357,1467,-73,7322,33,2355
32,-144,-7984,-71,69,26,-8962,-13312,-15619,2345,1432,-153,7322,33,2364
12,-156,-8036,-62,99,22,-9218,-12800,-13315,2345,1432,-153,7322,33,2364
12,-156,-8036,-62,99,22,-9218,-12800,-13315,2345,1432,-153,7322,33,2364
24,-204,-8028,-79,96,23,-8706,-11520,-14595,2377,1513,-4,7322,33,2364
24,-204,-8028,-79,96,23,-8706,-11520,-14595,2377,1513,-4,7322,33,2364
48,-112,-7996,-76,69,45,-5890,-11776,-15619,2363,1459,-86,7322,33,2364
24,-148,-8024,-53,62,46,-7938,-8960,-14595,2350,1476,-86,7322,33,2374
24,-148,-8024,-53,62,46,-7938,-8960,-14595,2350,1476,-86,7322,33,2374
0,-184,-8000,-71,87,32,-9218,-10240,-14595,2342,1495,-63,7322,33,2364
-4,-160,-8072,-69,69,18,-7426,-11520,-15107,2345,1484,-74,7322,33,2364
8,-112,-8056,-63,78,13,-6146,-12288,-13827,2346,1443,-97,7322,33,2345
8,-112,-8056,-63,78,13,-6146,-12288,-13827,2346,1443,-97,7322,33,2345
8,-112,-8056,-63,78,13,-6146,-12288,-13827,2354,1466,-93,7322,33,2364
8,-112,-8056,-63,78,13,-6146,-12288,-13827,2352,1468,-114,7322,33,2364
8,-112,-8056,-63,78,13,-6146,-12288,-13827,2370,1427,-152,7322,33,2355
8,-112,-8056,-63,78,13,-6146,-12288,-13827,2370,1427,-152,7322,33,2374
-12,-128,-8000,-70,112,12,-9730,-14592,-16131,2370,1427,-152,7322,33,2364
-12,-128,-8000,-70,112,12,-9730,-14592,-16131,2370,1427,-152,7322,33,2364
72,-156,-8024,-76,84,36,-9218,-10240,-11523,2343,1473,-95,7322,33,2336
60,-192,-7976,-69,54,51,-9730,-11776,-11779,2372,1488,-71,7322,33,2392
60,-192,-7976,-69,54,51,-9730,-11776,-11779,2372,1488,-71,7322,33,2392
-40,-108,-8052,-57,93,35,-7938,-11008,-13315,2372,1488,-71,7322,33,2392
-40,-108,-8052,-57,93,35,-7938,-11008,-13315,2372,1488,-71,7322,33,2392
-40,-108,-8052,-57,93,35,-7938,-11008,-13315,2372,1488,-71,7322,33,2392
-40,-108,-8052,-57,93,35,-7938,-11008,-13315,2372,1488,-71,7322,33,2392
-40,-108,-8052,-57,93,35,-7938,-11008,-13315,2372,1488,-71,7322,33,2392
-40,-108,-8052,-57,93,35,-7938,-11008,-13315,2372,1488,-71,7322,33,2392
-40,-108,-8052,-57,93,35,-7938,-11008,-13315,2372,1488,-71,7322,33,2392
-40,-108,-8052,-57,93,35,-7938,-11008,-13315,2348,1455,-107,7322,33,2392
-40,-108,-8052,-57,93,35,-7938,-11008,-13315,2348,1455,-107,7322,33,2345
-40,-108,-8052,-57,93,35,-7938,-11008,-13315,2348,1455,-107,7322,33,2345
-40,-108,-8052,-57,93,35,-7938,-11008,-13315,2348,1455,-107,7322,33,2345
-40,-108,-8052,-57,93,35,-7938,-11008,-13315,2348,1455,-107,7322,33,2345
-40,-108,-8052,-57,93,35,-7938,-11008,-13315,2348,1455,-107,7322,33,2345
-40,-108,-8052,-57,93,35,-7938,-11008,-13315,2348,1455,-107,7322,33,2345
-40,-156,-8040,-69,83,9,-5122,-11264,-13059,2348,1455,-107,7322,33,2345
-40,-156,-8040,-69,83,9,-5122,-11264,-13059,2348,1455,-107,7322,33,2345
-40,-156,-8040,-69,83,9,-5122,-11264,-13059,2348,1455,-107,7322,33,2345
-40,-156,-8040,-69,83,9,-5122,-11264,-13059,2348,1455,-107,7322,33,2345
-40,-156,-8040,-69,83,9,-5122,-11264,-13059,2348,1455,-107,7322,33,2345
-40,-156,-8040,-69,83,9,-5122,-11264,-13059,2348,1455,-107,7322,33,2345
-40,-156,-8040,-69,83,9,-5122,-11264,-13059,2348,1455,-107,7322,33,2345
-40,-156,-8040,-69,83,9,-5122,-11264,-13059,2348,1455,-107,7322,33,2345
-40,-156,-8040,-69,83,9,-5122,-11264,-13059,2348,1455,-107,7322,33,2345
-40,-156,-8040,-69,83,9,-5122,-11264,-13059,2348,1455,-107,7322,33,2345
-48,-132,-7956,-68,97,41,-7170,-9984,-13059,2346,1482,-97,7322,33,2345
-48,-132,-7956,-68,97,41,-7170,-9984,-13059,2346,1482,-97,7322,33,2345
-48,-132,-7956,-68,97,41,-7170,-9984,-13059,2346,1482,-97,7322,33,2336
-48,-132,-7956,-68,97,41,-7170,-9984,-13059,2346,1482,-97,7322,33,2336
-48,-132,-7956,-68,97,41,-7170,-9984,-13059,2346,1482,-97,7322,33,2336
-48,-132,-7956,-68,97,41,-7170,-9984,-13059,2346,1482,-97,7322,33,2336
-48,-132,-7956,-68,97,41,-7170,-9984,-13059,2346,1482,-97,7322,33,2336
-48,-132,-7956,-68,97,41,-7170,-9984,-13059,2346,1482,-97,7322,33,2336
-48,-132,-7956,-68,97,41,-7170,-9984,-13059,2346,1482,-97,7322,33,2336
-48,-132,-7956,-68,97,41,-7170,-9984,-13059,2346,1482,-97,7322,33,2336
-48,-132,-7956,-68,97,41,-7170,-9984,-13059,2346,1482,-97,7322,33,2336
-48,-132,-7956,-68,97,41,-7170,-9984,-13059,2346,1482,-97,7322,33,2336
88,-108,-8044,-49,84,24,-6402,-7168,-13059,2346,1482,-97,7322,33,2336
88,-108,-8044,-49,84,24,-6402,-7168,-13059,2346,1482,-97,7322,33,2336
88,-108,-8044,-49,84,24,-6402,-7168,-13059,2346,1482,-97,7322,33,2336
88,-108,-8044,-49,84,24,-6402,-7168,-13059,2346,1482,-97,7322,33,2336
88,-108,-8044,-49,84,24,-6402,-7168,-13059,2346,1482,-97,7322,33,2336
88,-108,-8044,-49,84,24,-6402,-7168,-13059,2346,1482,-97,7322,33,2336
88,-108,-8044,-49,84,24,-6402,-7168,-13059,2346,1482,-97,7322,33,2336
88,-108,-8044,-49,84,24,-6402,-7168,-13059,2353,1508,-84,7322,33,2336
88,-108,-8044,-49,84,24,-6402,-7168,-13059,2353,1508,-84,7322,33,2336
88,-108,-8044,-49,84,24,-6402,-7168,-13059,2353,1508,-84,7322,33,2336
88,-108,-8044,-49,84,24,-6402,-7168,-13059,2353,1508,-84,7322,33,2336
88,-108,-8044,-49,84,24,-6402,-7168,-13059,2353,1508,-84,7322,33,2336
-28,-184,-7964,-59,81,29,-6658,-11520,-14595,2353,1508,-84,7322,33,2336
-28,-184,-7964,-59,81,29,-6658,-11520,-14595,2353,1508,-84,7322,33,2336
-28,-184,-7964,-59,81,29,-6658,-11520,-14595,2353,1508,-84,7322,33,2336
-28,-184,-7964,-59,81,29,-6658,-11520,-14595,2353,1508,-84,7322,33,2336
-28,-184,-7964,-59,81,29,-6658,-11520,-14595,2353,1508,-84,7322,33,2336
-28,-184,-7964,-59,81,29,-6658,-11520,-14595,2353,1508,-84,7322,33,2336
-28,-184,-7964,-59,81,29,-6658,-11520,-14595,2353,1508,-84,7322,33,2336
-28,-184,-7964,-59,81,29,-6658,-11520,-14595,2353,1508,-84,7322,33,2336
-28,-184,-7964,-59,81,29,-6658,-11520,-14595,2353,1508,-84,7322,33,2336
-28,-184,-7964,-59,81,29,-6658,-11520,-14595,2353,1508,-84,7322,33,2336
-28,-184,-7964,-59,81,29,-6658,-11520,-14595,2353,1508,-84,7322,33,2336
-28,-184,-7964,-59,81,29,-6658,-11520,-14595,2353,1508,-84,7322,33,2336
64,-136,-8040,-46,97,27,-6658,-11520,-14595,2362,1487,-55,7322,33,2383
64,-136,-8040,-46,97,27,-6658,-11520,-14595,2362,1487,-55,7322,33,2383
64,-136,-8040,-46,97,27,-6658,-11520,-14595,2362,1487,-55,7322,33,2383
64,-136,-8040,-46,97,27,-6658,-11520,-14595,2362,1487,-55,7322,33,2383
64,-136,-8040,-46,97,27,-6658,-11520,-14595,2362,1487,-55,7322,33,2383
64,-136,-8040,-46,97,27,-6658,-11520,-14595,2362,1487,-55,7322,33,2383
64,-136,-8040,-46,97,27,-6658,-11520,-14595,2362,1487,-55,7322,33,2383
64,-136,-8040,-46,97,27,-6658,-11520,-14595,2362,1487,-55,7322,33,2383
64,-136,-8040,-46,97,27,-6658,-11520,-14595,2362,1487,-55,7322,33,2383
64,-136,-8040,-46,97,27,-6658,-11520,-14595,2362,1487,-55,7322,33,2383
64,-136,-8040,-46,97,27,-6658,-11520,-14595,2362,1487,-55,7322,33,2383
64,-136,-8040,-46,97,27,-6658,-11520,-14595,2362,1487,-55,7322,33,2383
64,-136,-8040,-46,97,27,-6658,-11520,-14595,2362,1487,-55,7322,33,2383
64,-136,-8040,-46,97,27,-6658,-11520,-14595,2362,1487,-55,7322,33,2383
20,-196,-8000,-79,90,29,-6658,-11520,-14595,2362,1487,-55,7322,33,2383
20,-196,-8000,-79,90,29,-6658,-11520,-14595,2353,1473,-54,7322,33,2364
20,-196,-8000,-79,90,29,-6658,-11520,-14595,2353,1473,-54,7322,33,2364
20,-196,-8000,-79,90,29,-6658,-11520,-14595,2353,1473,-54,7322,33,2364
20,-196,-8000,-79,90,29,-6658,-11520,-14595,2353,1473,-54,7322,33,2364
20,-196,-8000,-79,90,29,-6658,-11520,-14595,2353,1473,-54,7322,33,2364
20,-196,-8000,-79,90,29,-6658,-11520,-14595,2353,1473,-54,7322,33,2364
-16,-120,-8000,-100,88,14,-6658,-8960,-13315,2353,1473,-54,7322,33,2364
-16,-120,-8000,-100,88,14,-6658,-8960,-13315,2353,1473,-54,7322,33,2364
-16,-120,-8000,-100,88,14,-6658,-8960,-13315,2353,1473,-54,7322,33,2364
-16,-120,-8000,-100,88,14,-6658,-8960,-13315,2353,1473,-54,7322,33,2364
-16,-120,-8000,-100,88,14,-6658,-8960,-13315,2353,1473,-54,7322,33,2364
-16,-120,-8000,-100,88,14,-6658,-8960,-13315,2353,1473,-54,7322,33,2364
-16,-120,-8000,-100,88,14,-6658,-8960,-13315,2353,1473,-54,7322,33,2364
-16,-120,-8000,-100,88,14,-6658,-8960,-13315,2353,1473,-54,7322,33,2364
-16,-120,-8000,-100,88,14,-6658,-8960,-13315,2336,1452,-130,7322,33,2345
-48,-96,-7992,-59,90,14,-8706,-11008,-14595,2336,1452,-130,7322,33,2345
-48,-96,-7992,-59,90,14,-8706,-11008,-14595,2336,1452,-130,7322,33,2345
-48,-96,-7992,-59,90,14,-8706,-11008,-14595,2336,1452,-130,7322,33,2345
-48,-96,-7992,-59,90,14,-8706,-11008,-14595,2336,1452,-130,7322,33,2345
-48,-96,-7992,-59,90,14,-8706,-11008,-14595,2336,1452,-130,7322,33,2345
-48,-96,-7992,-59,90,14,-8706,-11008,-14595,2336,1452,-130,7322,33,2345
-48,-96,-7992,-59,90,14,-8706,-11008,-14595,2336,1452,-130,7322,33,2345
-48,-96,-7992,-59,90,14,-8706,-11008,-14595,2336,1452,-130,7322,33,2345
-48,-96,-7992,-59,90,14,-8706,-11008,-14595,2336,1452,-130,7322,33,2345
-48,-96,-7992,-59,90,14,-8706,-11008,-14595,2336,1452,-130,7322,33,2345
-48,-96,-7992,-59,90,14,-8706,-11008,-14595,2336,1452,-130,7322,33,2345
-48,-96,-7992,-59,90,14,-8706,-11008,-14595,2336,1452,-130,7322,33,2345
-48,-96,-7992,-59,90,14,-8706,-11008,-14595,2336,1452,-130,7322,33,2345
-48,-96,-7992,-59,90,14,-8706,-11008,-14595,2336,1452,-130,7322,33,2345
-48,-96,-7992,-59,90,14,-8706,-11008,-14595,2336,1452,-130,7322,33,2345
-48,-96,-7992,-59,90,14,-8706,-11008,-14595,2336,1452,-130,7322,33,2345
-48,-96,-7992,-59,90,14,-8706,-11008,-14595,2336,1452,-130,7322,33,2345
-48,-96,-7992,-59,90,14,-8706,-11008,-14595,2336,1452,-130,7322,33,2345
-48,-96,-7992,-59,90,14,-8706,-11008,-14595,2363,1477,-104,7322,33,2345
4,-184,-7972,-59,85,21,-6658,-12288,-15875,2363,1477,-104,7322,33,2364
4,-184,-7972,-59,85,21,-6658,-12288,-15875,2363,1477,-104,7322,33,2364
4,-184,-7972,-59,85,21,-6658,-12288,-15875,2363,1477,-104,7322,33,2364
4,-184,-7972,-59,85,21,-6658,-12288,-15875,2363,1477,-104,7322,33,2364
12,-144,-8004,-90,82,4,-9218,-11008,-14595,2363,1477,-104,7322,33,2364
12,-144,-8004,-90,82,4,-9218,-11008,-14595,2363,1477,-104,7322,33,2364
12,-144,-8004,-90,82,4,-9218,-11008,-14595,2363,1477,-104,7322,33,2364
12,-144,-8004,-90,82,4,-9218,-11008,-14595,2363,1477,-104,7322,33,2364
12,-144,-8004,-90,82,4,-9218,-11008,-14595,2353,1449,-84,7322,33,2364
12,-144,-8004,-90,82,4,-9218,-11008,-14595,2353,1449,-84,7322,33,2364
12,-144,-8004,-90,82,4,-9218,-11008,-14595,2353,1449,-84,7322,33,2364
12,-144,-8004,-90,82,4,-9218,-11008,-14595,2353,1449,-84,7322,33,2364
12,-144,-8004,-90,82,4,-9218,-11008,-14595,2353,1449,-84,7322,33,2364
12,-144,-8004,-90,82,4,-9218,-11008,-14595,2353,1449,-84,7322,33,2364
8,-104,-7972,-85,65,35,-6146,-10240,-13827,2353,1449,-84,7322,33,2364
8,-104,-7972,-85,65,35,-6146,-10240,-13827,2353,1449,-84,7322,33,2364
8,-104,-7972,-85,65,35,-6146,-10240,-13827,2353,1449,-84,7322,33,2364
8,-104,-7972,-85,65,35,-6146,-10240,-13827,2353,1449,-84,7322,33,2364
8,-104,-7972,-85,65,35,-6146,-10240,-13827,2353,1449,-84,7322,33,2364
8,-104,-7972,-85,65,35,-6146,-10240,-13827,2353,1449,-84,7322,33,2364
8,-104,-7972,-85,65,35,-6146,-10240,-13827,2353,1449,-84,7322,33,2364
8,-104,-7972,-85,65,35,-6146,-10240,-13827,2353,1449,-84,7322,33,2364
8,-104,-7972,-85,65,35,-6146,-10240,-13827,2353,1449,-84,7322,33,2364
8,-104,-7972,-85,65,35,-6146,-10240,-13827,2353,1449,-84,7322,33,2364
8,-104,-7972,-85,65,35,-6146,-10240,-13827,2345,1462,-115,7322,33,2364
12,-116,-8000,-41,91,20,-7426,-9472,-14595,2345,1462,-115,7322,33,2364
12,-116,-8000,-41,91,20,-7426,-9472,-14595,2345,1462,-115,7322,33,2364
12,-116,-8000,-41,91,20,-7426,-9472,-14595,2345,1462,-115,7322,33,2364
12,-116,-8000,-41,91,20,-7426,-9472,-14595,2345,1462,-115,7322,33,2364
12,-116,-8000,-41,91,20,-7426,-9472,-14595,2345,1462,-115,7322,33,2364
12,-116,-8000,-41,91,20,-7426,-9472,-14595,2345,1462,-115,7322,33,2364
12,-116,-8000,-41,91,20,-7426,-9472,-14595,2345,1462,-115,7322,33,2364
12,-116,-8000,-41,91,20,-7426,-9472,-14595,2345,1462,-115,7322,33,2364
12,-116,-8000,-41,91,20,-7426,-9472,-14595,2345,1462,-115,7322,33,2364
12,-116,-8000,-41,91,20,-7426,-9472,-14595,2345,1462,-115,7322,33,2364
12,-116,-8000,-41,91,20,-7426,-9472,-14595,2345,1462,-115,7322,33,2364
-40,-180,-7976,-77,77,33,-7170,-9216,-16131,2350,1466,-74,7322,33,2364
-40,-180,-7976,-77,77,33,-7170,-9216,-16131,2350,1466,-74,7322,33,2374
-40,-180,-7976,-77,77,33,-7170,-9216,-16131,2350,1466,-74,7322,33,2374
-40,-180,-7976,-77,77,33,-7170,-9216,-16131,2350,1466,-74,7322,33,2374
-40,-180,-7976,-77,77,33,-7170,-9216,-16131,2350,1466,-74,7322,33,2374
-40,-180,-7976,-77,77,33,-7170,-9216,-16131,2350,1466,-74,7322,33,2374
-16,-208,-7952,-75,74,9,-7682,-13824,-10499,2350,1466,-74,7322,33,2374
-16,-208,-7952,-75,74,9,-7682,-13824,-10499,2350,1466,-74,7322,33,2374
-16,-208,-7952,-75,74,9,-7682,-13824,-10499,2350,1466,-74,7322,33,2374
-16,-208,-7952,-75,74,9,-7682,-13824,-10499,2350,1466,-74,7322,33,2374
-16,-208,-7952,-75,74,9,-7682,-13824,-10499,2350,1466,-74,7322,33,2374
-16,-208,-7952,-75,74,9,-7682,-13824,-10499,2369,1468,-85,7322,33,2374
-16,-208,-7952,-75,74,9,-7682,-13824,-10499,2369,1468,-85,7322,33,2383
-16,-208,-7952,-75,74,9,-7682,-13824,-10499,2369,1468,-85,7322,33,2383
-16,-208,-7952,-75,74,9,-7682,-13824,-10499,2369,1468,-85,7322,33,2383
-16,-208,-7952,-75,74,9,-7682,-13824,-10499,2369,1468,-85,7322,33,2383
-16,-208,-7952,-75,74,9,-7682,-13824,-10499,2369,1468,-85,7322,33,2383
-16,-208,-7952,-75,74,9,-7682,-13824,-10499,2369,1468,-85,7322,33,2383
28,-148,-8016,-80,96,25,-6402,-13824,-12291,2369,1468,-85,7322,33,2383
28,-148,-8016,-80,96,25,-6402,-13824,-12291,2369,1468,-85,7322,33,2383
28,-148,-8016,-80,96,25,-6402,-13824,-12291,2369,1468,-85,7322,33,2383
28,-148,-8016,-80,96,25,-6402,-13824,-12291,2369,1468,-85,7322,33,2383
28,-148,-8016,-80,96,25,-6402,-13824,-12291,2369,1468,-85,7322,33,2383
28,-148,-8016,-80,96,25,-6402,-13824,-12291,2369,1468,-85,7322,33,2383
28,-148,-8016,-80,96,25,-6402,-13824,-12291,2369,1468,-85,7322,33,2383
28,-148,-8016,-80,96,25,-6402,-13824,-12291,2369,1468,-85,7322,33,2383
28,-148,-8016,-80,96,25,-6402,-13824,-12291,2369,1468,-85,7322,33,2383
-8,-112,-7984,-84,78,29,-7426,-12800,-13315,2360,1476,-78,7322,33,2383
-8,-112,-7984,-84,78,29,-7426,-12800,-13315,2360,1476,-78,7322,33,2383
-8,-112,-7984,-84,78,29,-7426,-12800,-13315,2360,1476,-78,7322,33,2383
-8,-112,-7984,-84,78,29,-7426,-12800,-13315,2360,1476,-78,7322,33,2383
-8,-112,-7984,-84,78,29,-7426,-12800,-13315,2360,1476,-78,7322,33,2383
-8,-112,-7984,-84,78,29,-7426,-12800,-13315,2360,1476,-78,7322,33,2383
-8,-112,-7984,-84,78,29,-7426,-12800,-13315,2360,1476,-78,7322,33,2383
-8,-112,-7984,-84,78,29,-7426,-12800,-13315,2360,1476,-78,7322,33,2383
-8,-112,-7984,-84,78,29,-7426,-12800,-13315,2360,1476,-78,7322,33,2383
-8,-112,-7984,-84,78,29,-7426,-12800,-13315,2360,1476,-78,7322,33,2383
-8,-112,-7984,-84,78,29,-7426,-12800,-13315,2360,1476,-78,7322,33,2383
-12,-92,-8012,-71,72,46,-5890,-11264,-13571,2360,1476,-78,7322,33,2383
-12,-92,-8012,-71,72,46,-5890,-11264,-13571,2360,1476,-78,7322,33,2383
-12,-92,-8012,-71,72,46,-5890,-11264,-13571,2360,1476,-78,7322,33,2383
-12,-92,-8012,-71,72,46,-5890,-11264,-13571,2374,1480,-128,7322,33,2383
-12,-92,-8012,-71,72,46,-5890,-11264,-13571,2374,1480,-128,7322,33,2383
-12,-92,-8012,-71,72,46,-5890,-11264,-13571,2374,1480,-128,7322,33,2383
-12,-92,-8012,-71,72,46,-5890,-11264,-13571,2374,1480,-128,7322,33,2383
-12,-92,-8012,-71,72,46,-5890,-11264,-13571,2374,1480,-128,7322,33,2383
-12,-92,-8012,-71,72,46,-5890,-11264,-13571,2374,1480,-128,7322,33,2383
-12,-92,-8012,-71,72,46,-5890,-11264,-13571,2374,1480,-128,7322,33,2383
-12,-92,-8012,-71,72,46,-5890,-11264,-13571,2374,1480,-128,7322,33,2383
68,-172,-8044,-78,94,32,-7426,-11520,-15875,2374,1480,-128,7322,33,2383
68,-172,-8044,-78,94,32,-7426,-11520,-15875,2374,1480,-128,7322,33,2383
68,-172,-8044,-78,94,32,-7426,-11520,-15875,2374,1480,-128,7322,33,2383
68,-172,-8044,-78,94,32,-7426,-11520,-15875,2374,1480,-128,7322,33,2383
68,-172,-8044,-78,94,32,-7426,-11520,-15875,2374,1480,-128,7322,33,2383
68,-172,-8044,-78,94,32,-7426,-11520,-15875,2374,1480,-128,7322,33,2383
68,-172,-8044,-78,94,32,-7426,-11520,-15875,2361,1491,-89,7322,33,2383
68,-172,-8044,-78,94,32,-7426,-11520,-15875,2361,1491,-89,7322,33,2374
68,-172,-8044,-78,94,32,-7426,-11520,-15875,2361,1491,-89,7322,33,2374
68,-172,-8044,-78,94,32,-7426,-11520,-15875,2361,1491,-89,7322,33,2374
-8,-164,-7984,-43,75,34,-8706,-12288,-14595,2361,1491,-89,7322,33,2374
-8,-164,-7984,-43,75,34,-8706,-12288,-14595,2361,1491,-89,7322,33,2374
-8,-164,-7984,-43,75,34,-8706,-12288,-14595,2361,1491,-89,7322,33,2374
-8,-164,-7984,-43,75,34,-8706,-12288,-14595,2361,1491,-89,7322,33,2374
-8,-164,-7984,-43,75,34,-8706,-12288,-14595,2361,1491,-89,7322,33,2374
-8,-164,-7984,-43,75,34,-8706,-12288,-14595,2361,1491,-89,7322,33,2374
-8,-164,-7984,-43,75,34,-8706,-12288,-14595,2349,1442,-69,7322,33,2383
-8,-164,-7984,-43,75,34,-8706,-12288,-14595,2349,1442,-69,7322,33,2383
-32,-132,-7996,-78,74,34,-7682,-8448,-11779,2349,1442,-69,7322,33,2383
-32,-132,-7996,-78,74,34,-7682,-8448,-11779,2349,1442,-69,7322,33,2383
-32,-132,-7996,-78,74,34,-7682,-8448,-11779,2349,1442,-69,7322,33,2383
-32,-132,-7996,-78,74,34,-7682,-8448,-11779,2349,1442,-69,7322,33,2383
-32,-132,-7996,-78,74,34,-7682,-8448,-11779,2349,1442,-69,7322,33,2383
-32,-132,-7996,-78,74,34,-7682,-8448,-11779,2349,1442,-69,7322,33,2383
-32,-132,-7996,-78,74,34,-7682,-8448,-11779,2349,1442,-69,7322,33,2383
-32,-132,-7996,-78,74,34,-7682,-8448,-11779,2349,1442,-69,7322,33,2383
-32,-132,-7996,-78,74,34,-7682,-8448,-11779,2349,1442,-69,7322,33,2383
-32,-132,-7996,-78,74,34,-7682,-8448,-11779,2349,1442,-69,7322,33,2383
-32,-132,-7996,-78,74,34,-7682,-8448,-11779,2349,1442,-69,7322,33,2383
-32,-132,-7996,-78,74,34,-7682,-8448,-11779,2349,1442,-69,7322,33,2383
40,-160,-7980,-75,102,22,-7170,-10496,-13571,2349,1442,-69,7322,33,2383
40,-160,-7980,-75,102,22,-7170,-10496,-13571,2349,1442,-69,7322,33,2383
40,-160,-7980,-75,102,22,-7170,-10496,-13571,2349,1442,-69,7322,33,2383
40,-160,-7980,-75,102,22,-7170,-10496,-13571,2359,1478,-63,7322,33,2383
40,-160,-7980,-75,102,22,-7170,-10496,-13571,2359,1478,-63,7322,33,2383
40,-160,-7980,-75,102,22,-7170,-10496,-13571,2359,1478,-63,7322,33,2383
40,-160,-7980,-75,102,22,-7170,-10496,-13571,2359,1478,-63,7322,33,2383
40,-160,-7980,-75,102,22,-7170,-10496,-13571,2359,1478,-63,7322,33,2383
40,-160,-7980,-75,102,22,-7170,-10496,-13571,2359,1478,-63,7322,33,2383
40,-160,-7980,-75,102,22,-7170,-10496,-13571,2359,1478,-63,7322,33,2383
40,-160,-7980,-75,102,22,-7170,-10496,-13571,2359,1478,-63,7322,33,2383
-52,-152,-7992,-73,78,9,-6146,-12288,-15107,2359,1478,-63,7322,33,2383
-52,-152,-7992,-73,78,9,-6146,-12288,-15107,2359,1478,-63,7322,33,2383
-52,-152,-7992,-73,78,9,-6146,-12288,-15107,2338,1469,-83,7322,33,2383
-52,-152,-7992,-73,78,9,-6146,-12288,-15107,2338,1469,-83,7322,33,2355
-52,-152,-7992,-73,78,9,-6146,-12288,-15107,2338,1469,-83,7322,33,2355
-52,-152,-7992,-73,78,9,-6146,-12288,-15107,2338,1469,-83,7322,33,2355
-52,-152,-7992,-73,78,9,-6146,-12288,-15107,2338,1469,-83,7322,33,2355
-52,-152,-7992,-73,78,9,-6146,-12288,-15107,2338,1469,-83,7322,33,2355
-52,-152,-7992,-73,78,9,-6146,-12288,-15107,2338,1469,-83,7322,33,2355
-52,-152,-7992,-73,78,9,-6146,-12288,-15107,2338,1469,-83,7322,33,2355
-52,-152,-7992,-73,78,9,-6146,-12288,-15107,2338,1469,-83,7322,33,2355
-52,-152,-7992,-73,78,9,-6146,-12288,-15107,2338,1469,-83,7322,33,2355
-52,-152,-7992,-73,78,9,-6146,-12288,-15107,2338,1469,-83,7322,33,2355
-20,-160,-7972,-79,92,6,-8450,-9216,-16131,2395,1423,-155,7322,33,2392
36,-128,-8024,-59,92,35,-8450,-12544,-12291,2395,1423,-155,7322,39,2786
36,-128,-8024,-59,92,35,-8450,-12544,-12291,2395,1423,-155,7322,39,2786
36,-128,-8024,-59,92,35,-8450,-12544,-12291,2395,1423,-155,7322,39,2786
36,-128,-8024,-59,92,35,-8450,-12544,-12291,2395,1423,-155,7322,39,2786
36,-128,-8024,-59,92,35,-8450,-12544,-12291,2395,1423,-155,7322,39,2786
36,-128,-8024,-59,92,35,-8450,-12544,-12291,2395,1423,-155,7322,39,2786
36,-128,-8024,-59,92,35,-8450,-12544,-12291,2395,1423,-155,7322,39,2786
36,-128,-8024,-59,92,35,-8450,-12544,-12291,2395,1423,-155,7322,39,2786
36,-128,-8024,-59,92,35,-8450,-12544,-12291,2395,1423,-155,7322,39,2786
36,-128,-8024,-59,92,35,-8450,-12544,-12291,2395,1423,-155,7322,39,2786
36,-128,-8024,-59,92,35,-8450,-12544,-12291,2395,1423,-155,7322,39,2786
-40,-144,-7984,-63,81,52,-5890,-10496,-11779,2395,1423,-155,7322,39,2786
-40,-144,-7984,-63,81,52,-5890,-10496,-11779,2348,1431,-125,7322,33,2392
-40,-144,-7984,-63,81,52,-5890,-10496,-11779,2348,1431,-125,7322,33,2392
-40,-144,-7984,-63,81,52,-5890,-10496,-11779,2348,1431,-125,7322,33,2392
-40,-144,-7984,-63,81,52,-5890,-10496,-11779,2348,1431,-125,7322,33,2392
-40,-144,-7984,-63,81,52,-5890,-10496,-11779,2348,1431,-125,7322,33,2392
-40,-144,-7984,-63,81,52,-5890,-10496,-11779,2348,1431,-125,7322,33,2392
-40,-144,-7984,-63,81,52,-5890,-10496,-11779,2348,1431,-125,7322,33,2392
16,-172,-8024,-97,75,30,-7170,-10496,-14339,2352,1468,-101,7322,33,2392
16,-172,-8024,-97,75,30,-7170,-10496,-14339,2352,1468,-101,7322,33,2364
16,-172,-8024,-97,75,30,-7170,-10496,-14339,2352,1468,-101,7322,33,2364
16,-172,-8024,-97,75,30,-7170,-10496,-14339,2352,1468,-101,7322,33,2364
16,-172,-8024,-97,75,30,-7170,-10496,-14339,2352,1468,-101,7322,33,2364
16,-172,-8024,-97,75,30,-7170,-10496,-14339,2352,1468,-101,7322,33,2364
16,-172,-8024,-97,75,30,-7170,-10496,-14339,2352,1468,-101,7322,33,2364
16,-172,-8024,-97,75,30,-7170,-10496,-14339,2352,1468,-101,7322,33,2364
16,-172,-8024,-97,75,30,-7170,-10496,-14339,2352,1468,-101,7322,33,2364
16,-172,-8024,-97,75,30,-7170,-10496,-14339,2352,1468,-101,7322,33,2364
16,-172,-8024,-97,75,30,-7170,-10496,-14339,2352,1468,-101,7322,33,2364
16,-172,-8024,-97,75,30,-7170,-10496,-14339,2352,1468,-101,7322,33,2364
8,-136,-8064,-88,77,22,-7170,-12544,-13059,2356,1455,-98,7322,33,2364
4,-68,-7976,-68,65,34,-9986,-11520,-13827,2356,1455,-98,7322,33,2383
4,-68,-7976,-68,65,34,-9986,-11520,-13827,2353,1463,-105,7322,33,2355
4,-68,-7976,-68,65,34,-9986,-11520,-13827,2353,1463,-105,7322,33,2355
4,-68,-7976,-68,65,34,-9986,-11520,-13827,2353,1463,-105,7322,33,2355
4,-68,-7976,-68,65,34,-9986,-11520,-13827,2353,1463,-105,7322,33,2355
4,-68,-7976,-68,65,34,-9986,-11520,-13827,2353,1463,-105,7322,33,2355
4,-68,-7976,-68,65,34,-9986,-11520,-13827,2353,1463,-105,7322,33,2355
-44,-168,-8048,-76,92,18,-7426,-11008,-13827,2352,1429,188,7322,33,2364
-44,-168,-8048,-76,92,18,-7426,-11008,-13827,2352,1429,188,7322,33,2364
32,-184,-8020,-78,93,6,-6146,-11008,-13827,2341,1483,-67,7322,33,2374
-36,-144,-8024,-75,90,10,-5122,-11264,-11779,2371,1490,-105,7322,33,2364
-36,-144,-8024,-75,90,10,-5122,-11264,-11779,2371,1490,-105,7322,33,2364
-36,-144,-8024,-75,90,10,-5122,-11264,-11779,2371,1490,-105,7322,33,2364
-36,-144,-8024,-75,90,10,-5122,-11264,-11779,2371,1490,-105,7322,33,2364
-36,-144,-8024,-75,90,10,-5122,-11264,-11779,2371,1490,-105,7322,33,2364
-36,-144,-8024,-75,90,10,-5122,-11264,-11779,2371,1490,-105,7322,33,2364
-36,-144,-8024,-75,90,10,-5122,-11264,-11779,2371,1490,-105,7322,33,2364
-36,-144,-8024,-75,90,10,-5122,-11264,-11779,2371,1490,-105,7322,33,2364
-36,-144,-8024,-75,90,10,-5122,-11264,-11779,2371,1490,-105,7322,33,2364
-36,-144,-8024,-75,90,10,-5122,-11264,-11779,2371,1490,-105,7322,33,2364
-36,-144,-8024,-75,90,10,-5122,-11264,-11779,2371,1490,-105,7322,33,2364
-36,-144,-8024,-75,90,10,-5122,-11264,-11779,2371,1490,-105,7322,33,2364
-36,-144,-8024,-75,90,10,-5122,-11264,-11779,2371,1490,-105,7322,33,2364
-36,-144,-8024,-75,90,10,-5122,-11264,-11779,2371,1490,-105,7322,33,2364
-8,-164,-8004,-76,54,7,-5122,-11264,-15619,2371,1490,-105,7322,33,2364
-8,-164,-8004,-76,54,7,-5122,-11264,-15619,2371,1490,-105,7322,33,2364
-8,-164,-8004,-76,54,7,-5122,-11264,-15619,2371,1490,-105,7322,33,2364
-8,-164,-8004,-76,54,7,-5122,-11264,-15619,2371,1490,-105,7322,33,2364
-8,-164,-8004,-76,54,7,-5122,-11264,-15619,2371,1490,-105,7322,33,2364
-8,-164,-8004,-76,54,7,-5122,-11264,-15619,2371,1490,-105,7322,33,2364
-8,-164,-8004,-76,54,7,-5122,-11264,-15619,2339,1439,-64,7322,33,2355
-8,-164,-8004,-76,54,7,-5122,-11264,-15619,2339,1439,-64,7322,33,2355
-8,-164,-8004,-76,54,7,-5122,-11264,-15619,2339,1439,-64,7322,33,2355
-8,-164,-8004,-76,54,7,-5122,-11264,-15619,2339,1439,-64,7322,33,2355
-8,-164,-8004,-76,54,7,-5122,-11264,-15619,2339,1439,-64,7322,33,2355
-8,-164,-8004,-76,54,7,-5122,-11264,-15619,2339,1439,-64,7322,33,2355
-8,-164,-8004,-76,54,7,-5122,-11264,-15619,2339,1439,-64,7322,33,2355
-12,-184,-7960,-81,88,28,-8706,-11520,-13315,2339,1439,-64,7322,33,2355
-12,-184,-7960,-81,88,28,-8706,-11520,-13315,2339,1439,-64,7322,33,2355
-12,-184,-7960,-81,88,28,-8706,-11520,-13315,2339,1439,-64,7322,33,2355
-12,-184,-7960,-81,88,28,-8706,-11520,-13315,2367,1476,-122,7322,33,2355
-32,-164,-8036,-67,70,35,-7682,-10496,-16643,2367,1476,-122,7322,33,2364
-32,-164,-8036,-67,70,35,-7682,-10496,-16643,2367,1476,-122,7322,33,2364
-32,-164,-8036,-67,70,35,-7682,-10496,-16643,2367,1476,-122,7322,33,2364
-32,-164,-8036,-67,70,35,-7682,-10496,-16643,2367,1476,-122,7322,33,2364
20,-136,-8024,-88,85,44,-7426,-12288,-15107,2355,1428,-106,7322,33,2374
20,-136,-8024,-88,85,44,-7426,-12288,-15107,2355,1428,-106,7322,33,2374
-20,-116,-8004,-65,74,26,-6146,-10240,-12035,2355,1428,-106,7322,33,2374
-20,-116,-8004,-65,74,26,-6146,-10240,-12035,2355,1428,-106,7322,33,2374
-20,-116,-8004,-65,74,26,-6146,-10240,-12035,2355,1428,-106,7322,33,2374
-20,-116,-8004,-65,74,26,-6146,-10240,-12035,2355,1428,-106,7322,33,2374
-20,-116,-8004,-65,74,26,-6146,-10240,-12035,2347,1485,-95,7322,33,2374
-20,-116,-8004,-65,74,26,-6146,-10240,-12035,2347,1485,-95,7322,33,2374
-20,-116,-8004,-65,74,26,-6146,-10240,-12035,2347,1485,-95,7322,33,2374
-20,-116,-8004,-65,74,26,-6146,-10240,-12035,2347,1485,-95,7322,33,2374
-20,-116,-8004,-65,74,26,-6146,-10240,-12035,2347,1485,-95,7322,33,2345
-20,-116,-8004,-65,74,26,-6146,-10240,-12035,2347,1485,-95,7322,33,2345
-20,-116,-8004,-65,74,26,-6146,-10240,-12035,2347,1485,-95,7322,33,2345
-20,-116,-8004,-65,74,26,-6146,-10240,-12035,2347,1485,-95,7322,33,2345
-20,-116,-8004,-65,74,26,-6146,-10240,-12035,2347,1485,-95,7322,33,2345
-20,-116,-8004,-65,74,26,-6146,-10240,-12035,2347,1485,-95,7322,33,2345
-20,-116,-8004,-65,74,26,-6146,-10240,-12035,2347,1485,-95,7322,33,2345
-40,-152,-7952,-67,109,10,-7170,-10496,-13571,2347,1485,-95,7322,33,2345
-40,-152,-7952,-67,109,10,-7170,-10496,-13571,2347,1485,-95,7322,33,2345
-40,-152,-7952,-67,109,10,-7170,-10496,-13571,2347,1485,-95,7322,33,2345
-64,-136,-7972,-65,93,-2,-6658,-11008,-13315,2346,1459,-112,7322,33,2383
-64,-136,-7972,-65,93,-2,-6658,-11008,-13315,2346,1459,-112,7322,33,2383
-64,-136,-7972,-65,93,-2,-6658,-11008,-13315,2346,1459,-112,7322,33,2355
-64,-136,-7972,-65,93,-2,-6658,-11008,-13315,2346,1459,-112,7322,33,2355
-64,-136,-7972,-65,93,-2,-6658,-11008,-13315,2346,1459,-112,7322,33,2355
-64,-136,-7972,-65,93,-2,-6658,-11008,-13315,2346,1459,-112,7322,33,2355
-64,-136,-7972,-65,93,-2,-6658,-11008,-13315,2346,1459,-112,7322,33,2355
-64,-136,-7972,-65,93,-2,-6658,-11008,-13315,2346,1459,-112,7322,33,2355
-64,-136,-7972,-65,93,-2,-6658,-11008,-13315,2346,1459,-112,7322,33,2355
-64,-136,-7972,-65,93,-2,-6658,-11008,-13315,2346,1459,-112,7322,33,2355
-64,-136,-7972,-65,93,-2,-6658,-11008,-13315,2346,1459,-112,7322,33,2355
-64,-136,-7972,-65,93,-2,-6658,-11008,-13315,2346,1459,-112,7322,33,2355
-64,-136,-7972,-65,93,-2,-6658,-11008,-13315,2346,1459,-112,7322,33,2355
-64,-136,-7972,-65,93,-2,-6658,-11008,-13315,2346,1459,-112,7322,33,2355
-64,-136,-7972,-65,93,-2,-6658,-11008,-13315,2346,1459,-112,7322,33,2355
-64,-136,-7972,-65,93,-2,-6658,-11008,-13315,2346,1459,-112,7322,33,2355
24,-112,-8032,-66,58,27,-7426,-11008,-12547,2346,1459,-112,7322,33,2355
24,-112,-8032,-66,58,27,-7426,-11008,-12547,2346,1459,-112,7322,33,2355
-36,-152,-8048,-55,87,18,-9218,-11008,-14595,2363,1436,-127,7322,33,2392
-36,-152,-8048,-55,87,18,-9218,-11008,-14595,2363,1436,-127,7322,33,2392
-36,-152,-8048,-55,87,18,-9218,-11008,-14595,2363,1436,-127,7322,33,2392
-36,-152,-8048,-55,87,18,-9218,-11008,-14595,2363,1436,-127,7322,33,2392
-36,-152,-8048,-55,87,18,-9218,-11008,-14595,2363,1436,-127,7322,33,2392
-36,-152,-8048,-55,87,18,-9218,-11008,-14595,2363,1436,-127,7322,33,2392
-36,-152,-8048,-55,87,18,-9218,-11008,-14595,2363,1436,-127,7322,33,2392
-36,-152,-8048,-55,87,18,-9218,-11008,-14595,2363,1436,-127,7322,33,2392
-36,-152,-8048,-55,87,18,-9218,-11008,-14595,2363,1436,-127,7322,33,2392
-36,-152,-8048,-55,87,18,-9218,-11008,-14595,2363,1436,-127,7322,33,2392
-36,-152,-8048,-55,87,18,-9218,-11008,-14595,2363,1436,-127,7322,33,2392
-36,-152,-8048,-55,87,18,-9218,-11008,-14595,2363,1436,-127,7322,33,2392
-36,-152,-8048,-55,87,18,-9218,-11008,-14595,2363,1436,-127,7322,33,2392
-36,-152,-8048,-55,87,18,-9218,-11008,-14595,2363,1436,-127,7322,33,2392
-36,-152,-8048,-55,87,18,-9218,-11008,-14595,2363,1436,-127,7322,33,2392
-36,-152,-8048,-55,87,18,-9218,-11008,-14595,2363,1436,-127,7322,33,2392
-36,-152,-8048,-55,87,18,-9218,-11008,-14595,2363,1436,-127,7322,33,2392
-36,-152,-8048,-55,87,18,-9218,-11008,-14595,2363,1436,-127,7322,33,2392
-36,-152,-8048,-55,87,18,-9218,-11008,-14595,2363,1436,-127,7322,33,2392
-36,-152,-8048,-55,87,18,-9218,-11008,-14595,2363,1436,-127,7322,33,2392
-36,-152,-8048,-55,87,18,-9218,-11008,-14595,2363,1436,-127,7322,33,2392
-4,-120,-7952,-69,81,-5,-7426,-12288,-13827,2363,1436,-127,7322,33,2392
-4,-120,-7952,-69,81,-5,-7426,-12288,-13827,2345,1450,-43,7322,33,2364
-4,-120,-7952,-69,81,-5,-7426,-12288,-13827,2345,1450,-43,7322,33,2364
-4,-120,-7952,-69,81,-5,-7426,-12288,-13827,2345,1450,-43,7322,33,2364
-4,-120,-7952,-69,81,-5,-7426,-12288,-13827,2345,1450,-43,7322,33,2364
32,-128,-7984,-64,103,37,-5378,-8960,-15107,2345,1450,-43,7322,33,2364
32,-128,-7984,-64,103,37,-5378,-8960,-15107,2345,1450,-43,7322,33,2364
32,-128,-7984,-64,103,37,-5378,-8960,-15107,2350,1489,-99,7322,33,2364
32,-128,-7984,-64,103,37,-5378,-8960,-15107,2350,1489,-99,7322,33,2364
32,-128,-7984,-64,103,37,-5378,-8960,-15107,2350,1489,-99,7322,33,2364
32,-128,-7984,-64,103,37,-5378,-8960,-15107,2350,1489,-99,7322,33,2364
32,-128,-7984,-64,103,37,-5378,-8960,-15107,2350,1489,-99,7322,33,2364
32,-128,-7984,-64,103,37,-5378,-8960,-15107,2350,1489,-99,7322,33,2364
32,-128,-7984,-64,103,37,-5378,-8960,-15107,2350,1489,-99,7322,33,2364
32,-128,-7984,-64,103,37,-5378,-8960,-15107,2350,1489,-99,7322,33,2364
12,-140,-8056,-55,78,65,-4610,-11776,-16643,2350,1489,-99,7322,33,2374
12,-140,-8056,-55,78,65,-4610,-11776,-16643,2350,1489,-99,7322,33,2374
12,-140,-8056,-55,78,65,-4610,-11776,-16643,2350,1489,-99,7322,33,2374
12,-140,-8056,-55,78,65,-4610,-11776,-16643,2350,1489,-99,7322,33,2374
12,-140,-8056,-55,78,65,-4610,-11776,-16643,2350,1489,-99,7322,33,2374
-24,-116,-8028,-83,88,36,-7426,-10240,-15107,2329,1461,-80,7322,33,2336
40,-148,-8012,-77,87,28,-7682,-9984,-14851,2354,1475,-111,7322,0,0
40,-148,-8012,-77,87,28,-7682,-9984,-14851,2354,1475,-111,7322,33,2392
40,-148,-8012,-77,87,28,-7682,-9984,-14851,2354,1475,-111,7322,33,2392
40,-148,-8012,-77,87,28,-7682,-9984,-14851,2354,1475,-111,7322,33,2392
40,-148,-8012,-77,87,28,-7682,-9984,-14851,2354,1475,-111,7322,33,2392
40,-148,-8012,-77,87,28,-7682,-9984,-14851,2354,1475,-111,7322,33,2392
40,-148,-8012,-77,87,28,-7682,-9984,-14851,2354,1475,-111,7322,33,2392
40,-148,-8012,-77,87,28,-7682,-9984,-14851,2354,1475,-111,7322,33,2392
40,-148,-8012,-77,87,28,-7682,-9984,-14851,2354,1475,-111,7322,33,2392
40,-148,-8012,-77,87,28,-7682,-9984,-14851,2354,1475,-111,7322,33,2392
40,-148,-8012,-77,87,28,-7682,-9984,-14851,2354,1475,-111,7322,33,2392
40,-148,-8012,-77,87,28,-7682,-9984,-14851,2354,1475,-111,7322,33,2392
40,-148,-8012,-77,87,28,-7682,-9984,-14851,2354,1475,-111,7322,33,2392
40,-148,-8012,-77,87,28,-7682,-9984,-14851,2354,1475,-111,7322,33,2392
8,-116,-8012,-50,73,44,-10498,-14080,-11523,2354,1475,-111,7322,33,2392
8,-116,-8012,-50,73,44,-10498,-14080,-11523,2354,1475,-111,7322,33,2392
8,-116,-8012,-50,73,44,-10498,-14080,-11523,2354,1475,-111,7322,33,2392
8,-116,-8012,-50,73,44,-10498,-14080,-11523,2354,1475,-111,7322,33,2392
8,-116,-8012,-50,73,44,-10498,-14080,-11523,2354,1475,-111,7322,33,2392
8,-116,-8012,-50,73,44,-10498,-14080,-11523,2354,1475,-111,7322,33,2392
8,-116,-8012,-50,73,44,-10498,-14080,-11523,2346,1473,-113,7322,33,2392
8,-116,-8012,-50,73,44,-10498,-14080,-11523,2346,1473,-113,7322,33,2364
8,-116,-8012,-50,73,44,-10498,-14080,-11523,2346,1473,-113,7322,33,2364
8,-116,-8012,-50,73,44,-10498,-14080,-11523,2346,1473,-113,7322,33,2364
8,-116,-8012,-50,73,44,-10498,-14080,-11523,2346,1473,-113,7322,33,2364
8,-116,-8012,-50,73,44,-10498,-14080,-11523,2346,1473,-113,7322,33,2364
8,-116,-8012,-50,73,44,-10498,-14080,-11523,2346,1473,-113,7322,33,2364
8,-116,-8012,-50,73,44,-10498,-14080,-11523,2346,1473,-113,7322,33,2364
8,-116,-8012,-50,73,44,-10498,-14080,-11523,2346,1473,-113,7322,33,2364
8,-116,-8012,-50,73,44,-10498,-14080,-11523,2346,1473,-113,7322,33,2364
8,-116,-8012,-50,73,44,-10498,-14080,-11523,2346,1473,-113,7322,33,2364
8,-116,-8012,-50,73,44,-10498,-14080,-11523,2346,1473,-113,7322,33,2364
8,-116,-8012,-50,73,44,-10498,-14080,-11523,2346,1473,-113,7322,33,2364
0,-160,-8008,-67,89,17,-5378,-9472,-13827,2346,1473,-113,7322,33,2364
0,-160,-8008,-67,89,17,-5378,-9472,-13827,2346,1473,-113,7322,33,2364
0,-160,-8008,-67,89,17,-5378,-9472,-13827,2346,1473,-113,7322,33,2364
0,-160,-8008,-67,89,17,-5378,-9472,-13827,2346,1473,-113,7322,33,2364
0,-160,-8008,-67,89,17,-5378,-9472,-13827,2346,1473,-113,7322,33,2364
0,-160,-8008,-67,89,17,-5378,-9472,-13827,2346,1473,-113,7322,33,2364
0,-160,-8008,-67,89,17,-5378,-9472,-13827,2343,1456,-128,7322,33,2364
0,-160,-8008,-67,89,17,-5378,-9472,-13827,2343,1456,-128,7322,33,2383
0,-160,-8008,-67,89,17,-5378,-9472,-13827,2343,1456,-128,7322,33,2383
0,-160,-8008,-67,89,17,-5378,-9472,-13827,2343,1456,-128,7322,33,2383
4,-192,-8004,-69,98,37,-7170,-11264,-14339,2343,1456,-128,7322,33,2383
4,-192,-8004,-69,98,37,-7170,-11264,-14339,2343,1456,-128,7322,33,2383
4,-192,-8004,-69,98,37,-7170,-11264,-14339,2343,1456,-128,7322,33,2383
4,-192,-8004,-69,98,37,-7170,-11264,-14339,2343,1456,-128,7322,33,2383
4,-192,-8004,-69,98,37,-7170,-11264,-14339,2343,1456,-128,7322,33,2383
4,-192,-8004,-69,98,37,-7170,-11264,-14339,2343,1456,-128,7322,33,2383
4,-192,-8004,-69,98,37,-7170,-11264,-14339,2343,1456,-128,7322,33,2383
4,-192,-8004,-69,98,37,-7170,-11264,-14339,2343,1456,-128,7322,33,2383
4,-192,-8004,-69,98,37,-7170,-11264,-14339,2343,1456,-128,7322,33,2383
4,-192,-8004,-69,98,37,-7170,-11264,-14339,2343,1456,-128,7322,33,2383
-28,-144,-7996,-78,88,50,-7682,-9216,-14339,2340,1447,-58,7322,33,2374
-28,-144,-7996,-78,88,50,-7682,-9216,-14339,2340,1447,-58,7322,33,2374
-28,-144,-7996,-78,88,50,-7682,-9216,-14339,2340,1447,-58,7322,33,2374
-28,-144,-7996,-78,88,50,-7682,-9216,-14339,2340,1447,-58,7322,33,2374
-28,-144,-7996,-78,88,50,-7682,-9216,-14339,2340,1447,-58,7322,33,2374
-28,-144,-7996,-78,88,50,-7682,-9216,-14339,2340,1447,-58,7322,33,2374
-28,-144,-7996,-78,88,50,-7682,-9216,-14339,2340,1447,-58,7322,33,2374
-28,-144,-7996,-78,88,50,-7682,-9216,-14339,2340,1447,-58,7322,33,2374
-28,-144,-7996,-78,88,50,-7682,-9216,-14339,2340,1447,-58,7322,33,2374
28,-116,-8032,-58,69,32,-7170,-10496,-14339,2340,1447,-58,7322,33,2374
28,-116,-8032,-58,69,32,-7170,-10496,-14339,2340,1447,-58,7322,33,2374
28,-116,-8032,-58,69,32,-7170,-10496,-14339,2340,1447,-58,7322,33,2374
28,-116,-8032,-58,69,32,-7170,-10496,-14339,2346,1463,-112,7322,33,2374
28,-116,-8032,-58,69,32,-7170,-10496,-14339,2346,1463,-112,7322,33,2374
28,-116,-8032,-58,69,32,-7170,-10496,-14339,2346,1463,-112,7322,33,2374
28,-116,-8032,-58,69,32,-7170,-10496,-14339,2346,1463,-112,7322,33,2374
28,-116,-8032,-58,69,32,-7170,-10496,-14339,2346,1463,-112,7322,33,2374
28,-116,-8032,-58,69,32,-7170,-10496,-14339,2346,1463,-112,7322,33,2374
28,-116,-8032,-58,69,32,-7170,-10496,-14339,2346,1463,-112,7322,33,2374
28,-116,-8032,-58,69,32,-7170,-10496,-14339,2346,1463,-112,7322,33,2374
28,-116,-8032,-58,69,32,-7170,-10496,-14339,2346,1463,-112,7322,33,2374
28,-116,-8032,-58,69,32,-7170,-10496,-14339,2346,1463,-112,7322,33,2374
28,-116,-8032,-58,69,32,-7170,-10496,-14339,2346,1463,-112,7322,33,2374
28,-116,-8032,-58,69,32,-7170,-10496,-14339,2346,1463,-112,7322,33,2374
28,-116,-8032,-58,69,32,-7170,-10496,-14339,2346,1463,-112,7322,33,2374
28,-116,-8032,-58,69,32,-7170,-10496,-14339,2346,1463,-112,7322,33,2374
28,-116,-8032,-58,69,32,-7170,-10496,-14339,2346,1463,-112,7322,33,2374
28,-116,-8032,-58,69,32,-7170,-10496,-14339,2346,1463,-112,7322,33,2374
52,-196,-8032,-81,83,8,-8706,-11008,-17667,2346,1463,-112,7322,33,2374
52,-196,-8032,-81,83,8,-8706,-11008,-17667,2346,1463,-112,7322,33,2374
52,-196,-8032,-81,83,8,-8706,-11008,-17667,2346,1463,-112,7322,33,2374
52,-196,-8032,-81,83,8,-8706,-11008,-17667,2346,1463,-112,7322,33,2374
52,-196,-8032,-81,83,8,-8706,-11008,-17667,2372,1473,-118,7322,33,2374
52,-196,-8032,-81,83,8,-8706,-11008,-17667,2372,1473,-118,7322,33,2374
52,-196,-8032,-81,83,8,-8706,-11008,-17667,2372,1473,-118,7322,33,2383
52,-196,-8032,-81,83,8,-8706,-11008,-17667,2372,1473,-118,7322,33,2383
52,-196,-8032,-81,83,8,-8706,-11008,-17667,2372,1473,-118,7322,33,2383
40,-168,-7976,-108,87,25,-7426,-9472,-15107,2372,1473,-118,7322,33,2383
40,-168,-7976,-108,87,25,-7426,-9472,-15107,2372,1473,-118,7322,33,2383
40,-168,-7976,-108,87,25,-7426,-9472,-15107,2372,1473,-118,7322,33,2383
40,-168,-7976,-108,87,25,-7426,-9472,-15107,2372,1473,-118,7322,33,2383
40,-168,-7976,-108,87,25,-7426,-9472,-15107,2372,1473,-118,7322,33,2383
40,-168,-7976,-108,87,25,-7426,-9472,-15107,2372,1473,-118,7322,33,2383
40,-168,-7976,-108,87,25,-7426,-9472,-15107,2339,1453,-44,7322,33,2355
40,-168,-7976,-108,87,25,-7426,-9472,-15107,2339,1453,-44,7322,33,2355
40,-168,-7976,-108,87,25,-7426,-9472,-15107,2339,1453,-44,7322,33,2355
40,-168,-7976,-108,87,25,-7426,-9472,-15107,2339,1453,-44,7322,33,2355
-4,-168,-7976,-108,87,25,-7426,-9472,-15107,2339,1453,-44,7322,33,2355
-4,-196,-7996,-62,73,18,-7682,-11264,-14851,2339,1453,-44,7322,33,2355
-4,-196,-7996,-62,73,18,-7682,-11264,-14851,2339,1453,-44,7322,33,2355
-4,-196,-7996,-62,73,18,-7682,-11264,-14851,2339,1453,-44,7322,33,2355
-4,-196,-7996,-62,73,18,-7682,-11264,-14851,2339,1453,-44,7322,33,2355
-4,-196,-7996,-62,73,18,-7682,-11264,-14851,2339,1453,-44,7322,33,2355
-4,-196,-7996,-62,73,18,-7682,-11264,-14851,2339,1453,-44,7322,33,2355
-4,-196,-7996,-62,73,18,-7682,-11264,-14851,2339,1453,-44,7322,33,2355
-4,-196,-7996,-62,73,18,-7682,-11264,-14851,2339,1453,-44,7322,33,2355
-4,-196,-7996,-62,73,18,-7682,-11264,-14851,2339,1453,-44,7322,33,2355
-4,-196,-7996,-62,73,18,-7682,-11264,-14851,2339,1453,-44,7322,33,2355
-4,-196,-7996,-62,73,18,-7682,-11264,-14851,2339,1453,-44,7322,33,2355
-4,-196,-7996,-62,73,18,-7682,-11264,-14851,2339,1453,-44,7322,33,2355
-32,-212,-8028,-53,78,6,-7938,-12800,-12547,2339,1453,-44,7322,33,2355
-32,-212,-8028,-53,78,6,-7938,-12800,-12547,2407,1455,-126,7322,39,2824
0,-216,-7984,-72,77,18,-8962,-11264,-14339,2407,1455,-126,7322,39,2824
0,-216,-7984,-72,77,18,-8962,-11264,-14339,2407,1455,-126,7322,39,2824
0,-216,-7984,-72,77,18,-8962,-11264,-14339,2347,1455,-97,7322,33,2392
0,-216,-7984,-72,77,18,-8962,-11264,-14339,2347,1455,-97,7322,33,2392
0,-216,-7984,-72,77,18,-8962,-11264,-14339,2347,1455,-97,7322,33,2392
-56,-100,-8036,-54,80,53,-7938,-11520,-13315,2347,1455,-97,7322,33,2392
-56,-100,-8036,-54,80,53,-7938,-11520,-13315,2347,1455,-97,7322,33,2392
-56,-100,-8036,-54,80,53,-7938,-11520,-13315,2347,1455,-97,7322,33,2392
-56,-100,-8036,-54,80,53,-7938,-11520,-13315,2347,1455,-97,7322,33,2392
-28,-144,-7992,-73,87,28,-6402,-10496,-13059,2357,1449,-89,7322,33,2374
-28,-144,-7992,-73,87,28,-6402,-10496,-13059,2357,1449,-89,7322,33,2374
-28,-144,-7992,-73,87,28,-6402,-10496,-13059,2357,1449,-89,7322,33,2374
-28,-144,-7992,-73,87,28,-6402,-10496,-13059,2352,1475,-68,7322,33,2364
-28,-144,-7992,-73,87,28,-6402,-10496,-13059,2352,1475,-68,7322,33,2364
-28,-144,-7992,-73,87,28,-6402,-10496,-13059,2352,1475,-68,7322,33,2364
-28,-144,-7992,-73,87,28,-6402,-10496,-13059,2352,1475,-68,7322,33,2364
-28,-144,-7992,-73,87,28,-6402,-10496,-13059,2352,1475,-68,7322,33,2364
-28,-144,-7992,-73,87,28,-6402,-10496,-13059,2352,1475,-68,7322,33,2364
-28,-144,-7992,-73,87,28,-6402,-10496,-13059,2352,1475,-68,7322,33,2364
-28,-144,-7992,-73,87,28,-6402,-10496,-13059,2352,1475,-68,7322,33,2364
-28,-144,-7992,-73,87,28,-6402,-10496,-13059,2352,1475,-68,7322,33,2364
0,-124,-7976,-57,81,39,-7170,-13824,-12291,2352,1475,-68,7322,33,2364
0,-124,-7976,-57,81,39,-7170,-13824,-12291,2352,1475,-68,7322,33,2364
0,-124,-7976,-57,81,39,-7170,-13824,-12291,2352,1475,-68,7322,33,2364
0,-124,-7976,-57,81,39,-7170,-13824,-12291,2352,1475,-68,7322,33,2364
0,-124,-7976,-57,81,39,-7170,-13824,-12291,2352,1475,-68,7322,33,2364
0,-124,-7976,-57,81,39,-7170,-13824,-12291,2352,1475,-68,7322,33,2364
0,-124,-7976,-57,81,39,-7170,-13824,-12291,2352,1475,-68,7322,33,2364
0,-124,-7976,-57,81,39,-7170,-13824,-12291,2352,1475,-68,7322,33,2364
0,-124,-7976,-57,81,39,-7170,-13824,-12291,2352,1475,-68,7322,33,2364
0,-124,-7976,-57,81,39,-7170,-13824,-12291,2352,1475,-68,7322,33,2364
0,-124,-7976,-57,81,39,-7170,-13824,-12291,2352,1475,-68,7322,33,2364
0,-124,-7976,-57,81,39,-7170,-13824,-12291,2352,1475,-68,7322,33,2364
0,-124,-7976,-57,81,39,-7170,-13824,-12291,2352,1475,-68,7322,33,2364
0,-124,-7976,-57,81,39,-7170,-13824,-12291,2352,1475,-68,7322,33,2364
0,-124,-7976,-57,81,39,-7170,-13824,-12291,2352,1475,-68,7322,33,2364
0,-124,-7976,-57,81,39,-7170,-13824,-12291,2352,1475,-68,7322,33,2364
0,-124,-7976,-57,81,39,-7170,-13824,-12291,2352,1475,-68,7322,33,2364
0,-124,-7976,-57,81,39,-7170,-13824,-12291,2352,1475,-68,7322,33,2364
0,-124,-7976,-57,81,39,-7170,-13824,-12291,2352,1475,-68,7322,33,2364
0,-124,-7976,-57,81,39,-7170,-13824,-12291,2352,1475,-68,7322,33,2364
0,-124,-7976,-57,81,39,-7170,-13824,-12291,2352,1475,-68,7322,33,2364
0,-124,-7976,-57,81,39,-7170,-13824,-12291,2352,1475,-68,7322,33,2364
0,-124,-7976,-57,81,39,-7170,-13824,-12291,2352,1475,-68,7322,33,2364
0,-124,-7976,-57,81,39,-7170,-13824,-12291,2352,1475,-68,7322,33,2364
0,-124,-7976,-57,81,39,-7170,-13824,-12291,2352,1475,-68,7322,33,2364
0,-124,-7976,-57,81,39,-7170,-13824,-12291,2352,1475,-68,7322,33,2364
0,-124,-7976,-57,81,39,-7170,-13824,-12291,2352,1475,-68,7322,33,2364
0,-124,-7976,-57,81,39,-7170,-13824,-12291,2352,1475,-68,7322,33,2364
0,-124,-7976,-57,81,39,-7170,-13824,-12291,2352,1475,-68,7322,33,2364
0,-124,-7976,-57,81,39,-7170,-13824,-12291,2352,1475,-68,7322,33,2364
0,-124,-7976,-57,81,39,-7170,-13824,-12291,2352,1475,-68,7322,33,2364
0,-124,-7976,-57,81,39,-7170,-13824,-12291,2352,1475,-68,7322,33,2364
0,-124,-7976,-57,81,39,-7170,-13824,-12291,2352,1475,-68,7322,33,2364
0,-124,-7976,-57,81,39,-7170,-13824,-12291,2352,1475,-68,7322,33,2364
0,-124,-7976,-57,81,39,-7170,-13824,-12291,2352,1475,-68,7322,33,2364
0,-124,-7976,-57,81,39,-7170,-13824,-12291,2352,1475,-68,7322,33,2364
0,-124,-7976,-57,81,39,-7170,-13824,-12291,2352,1475,-68,7322,33,2364
0,-124,-7976,-57,81,39,-7170,-13824,-12291,2352,1475,-68,7322,33,2364
0,-124,-7976,-57,81,39,-7170,-13824,-12291,2352,1475,-68,7322,33,2364
0,-124,-7976,-57,81,39,-7170,-13824,-12291,2352,1475,-68,7322,33,2364
0,-124,-7976,-57,81,39,-7170,-13824,-12291,2352,1475,-68,7322,33,2364
0,-124,-7976,-57,81,39,-7170,-13824,-12291,2352,1475,-68,7322,33,2364
0,-124,-7976,-57,81,39,-7170,-13824,-12291,2352,1475,-68,7322,33,2364
0,-124,-7976,-57,81,39,-7170,-13824,-12291,2352,1475,-68,7322,33,2364
0,-124,-7976,-57,81,39,-7170,-13824,-12291,2352,1475,-68,7322,33,2364
0,-124,-7976,-57,81,39,-7170,-13824,-12291,2352,1475,-68,7322,33,2364
0,-124,-7976,-57,81,39,-7170,-13824,-12291,2352,1475,-68,7322,33,2364
0,-124,-7976,-57,81,39,-7170,-13824,-12291,2352,1475,-68,7322,33,2364
0,-124,-7976,-57,81,39,-7170,-13824,-12291,2352,1475,-68,7322,33,2364
0,-124,-7976,-57,81,39,-7170,-13824,-12291,2352,1475,-68,7322,33,2364
0,-124,-7976,-57,81,39,-7170,-13824,-12291,2352,1475,-68,7322,33,2364
0,-124,-7976,-57,81,39,-7170,-13824,-12291,2352,1475,-68,7322,33,2364
0,-124,-7976,-57,81,39,-7170,-13824,-12291,2352,1475,-68,7322,33,2364
0,-124,-7976,-57,81,39,-7170,-13824,-12291,2352,1475,-68,7322,33,2364
0,-124,-7976,-57,81,39,-7170,-13824,-12291,2352,1475,-68,7322,33,2364
0,-124,-7976,-57,81,39,-7170,-13824,-12291,2352,1475,-68,7322,33,2364
0,-124,-7976,-57,81,39,-7170,-13824,-12291,2352,1475,-68,7322,33,2364
0,-124,-7976,-57,81,39,-7170,-13824,-12291,2352,1475,-68,7322,33,2364
0,-124,-7976,-57,81,39,-7170,-13824,-12291,2352,1475,-68,7322,33,2364
0,-124,-7976,-57,81,39,-7170,-13824,-12291,2352,1475,-68,7322,33,2364
0,-124,-7976,-57,81,39,-7170,-13824,-12291,2352,1475,-68,7322,33,2364
0,-124,-7976,-57,81,39,-7170,-13824,-12291,2352,1475,-68,7322,33,2364
0,-124,-7976,-57,81,39,-7170,-13824,-12291,2352,1475,-68,7322,33,2364
0,-124,-7976,-57,81,39,-7170,-13824,-12291,2352,1475,-68,7322,33,2364
0,-124,-7976,-57,81,39,-7170,-13824,-12291,2352,1475,-68,7322,33,2364
0,-124,-7976,-57,81,39,-7170,-13824,-12291,2352,1475,-68,7322,33,2364
0,-124,-7976,-57,81,39,-7170,-13824,-12291,2352,1475,-68,7322,33,2364
0,-124,-7976,-57,81,39,-7170,-13824,-12291,2352,1475,-68,7322,33,2364
0,-124,-7976,-57,81,39,-7170,-13824,-12291,2352,1475,-68,7322,33,2364
0,-124,-7976,-57,81,39,-7170,-13824,-12291,2352,1475,-68,7322,33,2364
0,-124,-7976,-57,81,39,-7170,-13824,-12291,2352,1475,-68,7322,33,2364
0,-124,-7976,-57,81,39,-7170,-13824,-12291,2352,1475,-68,7322,33,2364
0,-124,-7976,-57,81,39,-7170,-13824,-12291,2352,1475,-68,7322,33,2364
0,-124,-7976,-57,81,39,-7170,-13824,-12291,2352,1475,-68,7322,33,2364
0,-124,-7976,-57,81,39,-7170,-13824,-12291,2352,1475,-68,7322,33,2364
0,-124,-7976,-57,81,39,-7170,-13824,-12291,2352,1475,-68,7322,33,2364
0,-124,-7976,-57,81,39,-7170,-13824,-12291,2352,1475,-68,7322,33,2364
0,-124,-7976,-57,81,39,-7170,-13824,-12291,2352,1475,-68,7322,33,2364
0,-124,-7976,-57,81,39,-7170,-13824,-12291,2352,1475,-68,7322,33,2364
0,-124,-7976,-57,81,39,-7170,-13824,-12291,2352,1475,-68,7322,33,2364
0,-124,-7976,-57,81,39,-7170,-13824,-12291,2352,1475,-68,7322,33,2364
0,-124,-7976,-57,81,39,-7170,-13824,-12291,2352,1475,-68,7322,33,2364
0,-124,-7976,-57,81,39,-7170,-13824,-12291,2352,1475,-68,7322,33,2364
0,-124,-7976,-57,81,39,-7170,-13824,-12291,2352,1475,-68,7322,33,2364
0,-124,-7976,-57,81,39,-7170,-13824,-12291,2352,1475,-68,7322,33,2364
0,-124,-7976,-57,81,39,-7170,-13824,-12291,2352,1475,-68,7322,33,2364
0,-124,-7976,-57,81,39,-7170,-13824,-12291,2352,1475,-68,7322,33,2364
0,-124,-7976,-57,81,39,-7170,-13824,-12291,2352,1475,-68,7322,33,2364
0,-124,-7976,-57,81,39,-7170,-13824,-12291,2352,1475,-68,7322,33,2364
0,-124,-7976,-57,81,39,-7170,-13824,-12291,2352,1475,-68,7322,33,2364
0,-124,-7976,-57,81,39,-7170,-13824,-12291,2352,1475,-68,7322,33,2364
0,-124,-7976,-57,81,39,-7170,-13824,-12291,2352,1475,-68,7322,33,2364
0,-124,-7976,-57,81,39,-7170,-13824,-12291,2352,1475,-68,7322,33,2364
0,-124,-7976,-57,81,39,-7170,-13824,-12291,2352,1475,-68,7322,33,2364
0,-124,-7976,-57,81,39,-7170,-13824,-12291,2352,1475,-68,7322,33,2364
0,-124,-7976,-57,81,39,-7170,-13824,-12291,2352,1475,-68,7322,33,2364
0,-124,-7976,-57,81,39,-7170,-13824,-12291,2352,1475,-68,7322,33,2364
0,-124,-7976,-57,81,39,-7170,-13824,-12291,2352,1475,-68,7322,33,2364
0,-124,-7976,-57,81,39,-7170,-13824,-12291,2352,1475,-68,7322,33,2364
0,-124,-7976,-57,81,39,-7170,-13824,-12291,2352,1475,-68,7322,33,2364
0,-124,-7976,-57,81,39,-7170,-13824,-12291,2352,1475,-68,7322,33,2364
0,-124,-7976,-57,81,39,-7170,-13824,-12291,2352,1475,-68,7322,33,2364
0,-124,-7976,-57,81,39,-7170,-13824,-12291,2352,1475,-68,7322,33,2364
0,-124,-7976,-57,81,39,-7170,-13824,-12291,2352,1475,-68,7322,33,2364
0,-124,-7976,-57,81,39,-7170,-13824,-12291,2352,1475,-68,7322,33,2364
0,-124,-7976,-57,81,39,-7170,-13824,-12291,2352,1475,-68,7322,33,2364
0,-124,-7976,-57,81,39,-7170,-13824,-12291,2352,1475,-68,7322,33,2364
0,-124,-7976,-57,81,39,-7170,-13824,-12291,2352,1475,-68,7322,33,2364
0,-124,-7976,-57,81,39,-7170,-13824,-12291,2352,1475,-68,7322,33,2364
0,-124,-7976,-57,81,39,-7170,-13824,-12291,2352,1475,-68,7322,33,2364
0,-124,-7976,-57,81,39,-7170,-13824,-12291,2352,1475,-68,7322,33,2364
0,-124,-7976,-57,81,39,-7170,-13824,-12291,2352,1475,-68,7322,33,2364
0,-124,-7976,-57,81,39,-7170,-13824,-12291,2352,1475,-68,7322,33,2364
0,-124,-7976,-57,81,39,-7170,-13824,-12291,2352,1475,-68,7322,33,2364
0,-124,-7976,-57,81,39,-7170,-13824,-12291,2352,1475,-68,7322,33,2364
0,-124,-7976,-57,81,39,-7170,-13824,-12291,2352,1475,-68,7322,33,2364
0,-124,-7976,-57,81,39,-7170,-13824,-12291,2352,1475,-68,7322,33,2364
0,-124,-7976,-57,81,39,-7170,-13824,-12291,2352,1475,-68,7322,33,2364
0,-124,-7976,-57,81,39,-7170,-13824,-12291,2352,1475,-68,7322,33,2364
0,-124,-7976,-57,81,39,-7170,-13824,-12291,2352,1475,-68,7322,33,2364
0,-124,-7976,-57,81,39,-7170,-13824,-12291,2352,1475,-68,7322,33,2364
0,-124,-7976,-57,81,39,-7170,-13824,-12291,2352,1475,-68,7322,33,2364
0,-124,-7976,-57,81,39,-7170,-13824,-12291,2352,1475,-68,7322,33,2364
0,-124,-7976,-57,81,39,-7170,-13824,-12291,2352,1475,-68,7322,33,2364
0,-124,-7976,-57,81,39,-7170,-13824,-12291,2352,1475,-68,7322,33,2364
0,-124,-7976,-57,81,39,-7170,-13824,-12291,2352,1475,-68,7322,33,2364
0,-124,-7976,-57,81,39,-7170,-13824,-12291,2352,1475,-68,7322,33,2364
0,-124,-7976,-57,81,39,-7170,-13824,-12291,2352,1475,-68,7322,33,2364
0,-124,-7976,-57,81,39,-7170,-13824,-12291,2352,1475,-68,7322,33,2364
0,-124,-7976,-57,81,39,-7170,-13824,-12291,2352,1475,-68,7322,33,2364
0,-124,-7976,-57,81,39,-7170,-13824,-12291,2352,1475,-68,7322,33,2364
0,-124,-7976,-57,81,39,-7170,-13824,-12291,2352,1475,-68,7322,33,2364
0,-124,-7976,-57,81,39,-7170,-13824,-12291,2352,1475,-68,7322,33,2364
0,-124,-7976,-57,81,39,-7170,-13824,-12291,2352,1475,-68,7322,33,2364
0,-124,-7976,-57,81,39,-7170,-13824,-12291,2352,1475,-68,7322,33,2364
0,-124,-7976,-57,81,39,-7170,-13824,-12291,2352,1475,-68,7322,33,2364
0,-124,-7976,-57,81,39,-7170,-13824,-12291,2352,1475,-68,7322,33,2364
0,-124,-7976,-57,81,39,-7170,-13824,-12291,2352,1475,-68,7322,33,2364
0,-124,-7976,-57,81,39,-7170,-13824,-12291,2352,1475,-68,7322,33,2364
0,-124,-7976,-57,81,39,-7170,-13824,-12291,2352,1475,-68,7322,33,2364
0,-124,-7976,-57,81,39,-7170,-13824,-12291,2352,1475,-68,7322,33,2364
0,-124,-7976,-57,81,39,-7170,-13824,-12291,2352,1475,-68,7322,33,2364
0,-124,-7976,-57,81,39,-7170,-13824,-12291,2352,1475,-68,7322,33,2364
0,-124,-7976,-57,81,39,-7170,-13824,-12291,2352,1475,-68,7322,33,2364
0,-124,-7976,-57,81,39,-7170,-13824,-12291,2352,1475,-68,7322,33,2364
0,-124,-7976,-57,81,39,-7170,-13824,-12291,2352,1475,-68,7322,33,2364
0,-124,-7976,-57,81,39,-7170,-13824,-12291,2352,1475,-68,7322,33,2364
0,-124,-7976,-57,81,39,-7170,-13824,-12291,2352,1475,-68,7322,33,2364
0,-124,-7976,-57,81,39,-7170,-13824,-12291,2352,1475,-68,7322,33,2364
0,-124,-7976,-57,81,39,-7170,-13824,-12291,2352,1475,-68,7322,33,2364
0,-124,-7976,-57,81,39,-7170,-13824,-12291,2352,1475,-68,7322,33,2364
0,-124,-7976,-57,81,39,-7170,-13824,-12291,2352,1475,-68,7322,33,2364
0,-124,-7976,-57,81,39,-7170,-13824,-12291,2352,1475,-68,7322,33,2364
0,-124,-7976,-57,81,39,-7170,-13824,-12291,2352,1475,-68,7322,33,2364
0,-124,-7976,-57,81,39,-7170,-13824,-12291,2352,1475,-68,7322,33,2364
0,-124,-7976,-57,81,39,-7170,-13824,-12291,2352,1475,-68,7322,33,2364
0,-124,-7976,-57,81,39,-7170,-13824,-12291,2352,1475,-68,7322,33,2364
0,-124,-7976,-57,81,39,-7170,-13824,-12291,2352,1475,-68,7322,33,2364
0,-124,-7976,-57,81,39,-7170,-13824,-12291,2352,1475,-68,7322,33,2364
0,-124,-7976,-57,81,39,-7170,-13824,-12291,2352,1475,-68,7322,33,2364
0,-124,-7976,-57,81,39,-7170,-13824,-12291,2352,1475,-68,7322,33,2364
0,-124,-7976,-57,81,39,-7170,-13824,-12291,2352,1475,-68,7322,33,2364
0,-124,-7976,-57,81,39,-7170,-13824,-12291,2352,1475,-68,7322,33,2364
0,-124,-7976,-57,81,39,-7170,-13824,-12291,2352,1475,-68,7322,33,2364
0,-124,-7976,-57,81,39,-7170,-13824,-12291,2352,1475,-68,7322,33,2364
0,-124,-7976,-57,81,39,-7170,-13824,-12291,2352,1475,-68,7322,33,2364
0,-124,-7976,-57,81,39,-7170,-13824,-12291,2352,1475,-68,7322,33,2364
0,-124,-7976,-57,81,39,-7170,-13824,-12291,2352,1475,-68,7322,33,2364
0,-124,-7976,-57,81,39,-7170,-13824,-12291,2352,1475,-68,7322,33,2364
0,-124,-7976,-57,81,39,-7170,-13824,-12291,2352,1475,-68,7322,33,2364
0,-124,-7976,-57,81,39,-7170,-13824,-12291,2352,1475,-68,7322,33,2364
0,-124,-7976,-57,81,39,-7170,-13824,-12291,2352,1475,-68,7322,33,2364
0,-124,-7976,-57,81,39,-7170,-13824,-12291,2352,1475,-68,7322,33,2364
0,-124,-7976,-57,81,39,-7170,-13824,-12291,2352,1475,-68,7322,33,2364
0,-124,-7976,-57,81,39,-7170,-13824,-12291,2352,1475,-68,7322,33,2364
0,-124,-7976,-57,81,39,-7170,-13824,-12291,2352,1475,-68,7322,33,2364
0,-124,-7976,-57,81,39,-7170,-13824,-12291,2352,1475,-68,7322,33,2364
0,-124,-7976,-57,81,39,-7170,-13824,-12291,2352,1475,-68,7322,33,2364
0,-124,-7976,-57,81,39,-7170,-13824,-12291,2352,1475,-68,7322,33,2364
0,-124,-7976,-57,81,39,-7170,-13824,-12291,2352,1475,-68,7322,33,2364
0,-124,-7976,-57,81,39,-7170,-13824,-12291,2352,1475,-68,7322,33,2364
0,-124,-7976,-57,81,39,-7170,-13824,-12291,2352,1475,-68,7322,33,2364
0,-124,-7976,-57,81,39,-7170,-13824,-12291,2352,1475,-68,7322,33,2364
0,-124,-7976,-57,81,39,-7170,-13824,-12291,2352,1475,-68,7322,33,2364
0,-124,-7976,-57,81,39,-7170,-13824,-12291,2352,1475,-68,7322,33,2364
0,-124,-7976,-57,81,39,-7170,-13824,-12291,2352,1475,-68,7322,33,2364
0,-124,-7976,-57,81,39,-7170,-13824,-12291,2352,1475,-68,7322,33,2364
0,-124,-7976,-57,81,39,-7170,-13824,-12291,2352,1475,-68,7322,33,2364
0,-124,-7976,-57,81,39,-7170,-13824,-12291,2352,1475,-68,7322,33,2364
0,-124,-7976,-57,81,39,-7170,-13824,-12291,2352,1475,-68,7322,33,2364
0,-124,-7976,-57,81,39,-7170,-13824,-12291,2352,1475,-68,7322,33,2364
0,-124,-7976,-57,81,39,-7170,-13824,-12291,2352,1475,-68,7322,33,2364
0,-124,-7976,-57,81,39,-7170,-13824,-12291,2352,1475,-68,7322,33,2364
0,-124,-7976,-57,81,39,-7170,-13824,-12291,2352,1475,-68,7322,33,2364
0,-124,-7976,-57,81,39,-7170,-13824,-12291,2352,1475,-68,7322,33,2364
0,-124,-7976,-57,81,39,-7170,-13824,-12291,2352,1475,-68,7322,33,2364
0,-124,-7976,-57,81,39,-7170,-13824,-12291,2352,1475,-68,7322,33,2364
0,-124,-7976,-57,81,39,-7170,-13824,-12291,2352,1475,-68,7322,33,2364
0,-124,-7976,-57,81,39,-7170,-13824,-12291,2352,1475,-68,7322,33,2364
0,-124,-7976,-57,81,39,-7170,-13824,-12291,2352,1475,-68,7322,33,2364
0,-124,-7976,-57,81,39,-7170,-13824,-12291,2352,1475,-68,7322,33,2364
0,-124,-7976,-57,81,39,-7170,-13824,-12291,2352,1475,-68,7322,33,2364
0,-124,-7976,-57,81,39,-7170,-13824,-12291,2352,1475,-68,7322,33,2364
0,-124,-7976,-57,81,39,-7170,-13824,-12291,2352,1475,-68,7322,33,2364
0,-124,-7976,-57,81,39,-7170,-13824,-12291,2352,1475,-68,7322,33,2364
0,-124,-7976,-57,81,39,-7170,-13824,-12291,2352,1475,-68,7322,33,2364
0,-124,-7976,-57,81,39,-7170,-13824,-12291,2352,1475,-68,7322,33,2364
0,-124,-7976,-57,81,39,-7170,-13824,-12291,2352,1475,-68,7322,33,2364
0,-124,-7976,-57,81,39,-7170,-13824,-12291,2352,1475,-68,7322,33,2364
0,-124,-7976,-57,81,39,-7170,-13824,-12291,2352,1475,-68,7322,33,2364
0,-124,-7976,-57,81,39,-7170,-13824,-12291,2352,1475,-68,7322,33,2364
0,-124,-7976,-57,81,39,-7170,-13824,-12291,2352,1475,-68,7322,33,2364
0,-124,-7976,-57,81,39,-7170,-13824,-12291,2352,1475,-68,7322,33,2364
0,-124,-7976,-57,81,39,-7170,-13824,-12291,2352,1475,-68,7322,33,2364
0,-124,-7976,-57,81,39,-7170,-13824,-12291,2352,1475,-68,7322,33,2364
0,-124,-7976,-57,81,39,-7170,-13824,-12291,2352,1475,-68,7322,33,2364
0,-124,-7976,-57,81,39,-7170,-13824,-12291,2352,1475,-68,7322,33,2364
0,-124,-7976,-57,81,39,-7170,-13824,-12291,2352,1475,-68,7322,33,2364
0,-124,-7976,-57,81,39,-7170,-13824,-12291,2352,1475,-68,7322,33,2364
0,-124,-7976,-57,81,39,-7170,-13824,-12291,2352,1475,-68,7322,33,2364
0,-124,-7976,-57,81,39,-7170,-13824,-12291,2352,1475,-68,7322,33,2364
0,-124,-7976,-57,81,39,-7170,-13824,-12291,2352,1475,-68,7322,33,2364
0,-124,-7976,-57,81,39,-7170,-13824,-12291,2352,1475,-68,7322,33,2364
0,-124,-7976,-57,81,39,-7170,-13824,-12291,2352,1475,-68,7322,33,2364
0,-124,-7976,-57,81,39,-7170,-13824,-12291,2352,1475,-68,7322,33,2364
0,-124,-7976,-57,81,39,-7170,-13824,-12291,2352,1475,-68,7322,33,2364
0,-124,-7976,-57,81,39,-7170,-13824,-12291,2352,1475,-68,7322,33,2364
0,-124,-7976,-57,81,39,-7170,-13824,-12291,2352,1475,-68,7322,33,2364
0,-124,-7976,-57,81,39,-7170,-13824,-12291,2352,1475,-68,7322,33,2364
0,-124,-7976,-57,81,39,-7170,-13824,-12291,2352,1475,-68,7322,33,2364
0,-124,-7976,-57,81,39,-7170,-13824,-12291,2352,1475,-68,7322,33,2364
0,-124,-7976,-57,81,39,-7170,-13824,-12291,2352,1475,-68,7322,33,2364
0,-124,-7976,-57,81,39,-7170,-13824,-12291,2352,1475,-68,7322,33,2364
0,-124,-7976,-57,81,39,-7170,-13824,-12291,2352,1475,-68,7322,33,2364
0,-124,-7976,-57,81,39,-7170,-13824,-12291,2352,1475,-68,7322,33,2364
0,-124,-7976,-57,81,39,-7170,-13824,-12291,2352,1475,-68,7322,33,2364
0,-124,-7976,-57,81,39,-7170,-13824,-12291,2352,1475,-68,7322,33,2364
0,-124,-7976,-57,81,39,-7170,-13824,-12291,2352,1475,-68,7322,33,2364
0,-124,-7976,-57,81,39,-7170,-13824,-12291,2352,1475,-68,7322,33,2364
0,-124,-7976,-57,81,39,-7170,-13824,-12291,2352,1475,-68,7322,33,2364
0,-124,-7976,-57,81,39,-7170,-13824,-12291,2352,1475,-68,7322,33,2364
0,-124,-7976,-57,81,39,-7170,-13824,-12291,2352,1475,-68,7322,33,2364
0,-124,-7976,-57,81,39,-7170,-13824,-12291,2352,1475,-68,7322,33,2364
0,-124,-7976,-57,81,39,-7170,-13824,-12291,2352,1475,-68,7322,33,2364
0,-124,-7976,-57,81,39,-7170,-13824,-12291,2352,1475,-68,7322,33,2364
0,-124,-7976,-57,81,39,-7170,-13824,-12291,2352,1475,-68,7322,33,2364
0,-124,-7976,-57,81,39,-7170,-13824,-12291,2352,1475,-68,7322,33,2364
0,-124,-7976,-57,81,39,-7170,-13824,-12291,2352,1475,-68,7322,33,2364
0,-124,-7976,-57,81,39,-7170,-13824,-12291,2352,1475,-68,7322,33,2364
0,-124,-7976,-57,81,39,-7170,-13824,-12291,2352,1475,-68,7322,33,2364
0,-124,-7976,-57,81,39,-7170,-13824,-12291,2352,1475,-68,7322,33,2364
0,-124,-7976,-57,81,39,-7170,-13824,-12291,2352,1475,-68,7322,33,2364
0,-124,-7976,-57,81,39,-7170,-13824,-12291,2352,1475,-68,7322,33,2364
0,-124,-7976,-57,81,39,-7170,-13824,-12291,2352,1475,-68,7322,33,2364
0,-124,-7976,-57,81,39,-7170,-13824,-12291,2352,1475,-68,7322,33,2364
0,-124,-7976,-57,81,39,-7170,-13824,-12291,2352,1475,-68,7322,33,2364
0,-124,-7976,-57,81,39,-7170,-13824,-12291,2352,1475,-68,7322,33,2364
0,-124,-7976,-57,81,39,-7170,-13824,-12291,2352,1475,-68,7322,33,2364
0,-124,-7976,-57,81,39,-7170,-13824,-12291,2352,1475,-68,7322,33,2364
0,-124,-7976,-57,81,39,-7170,-13824,-12291,2352,1475,-68,7322,33,2364
0,-124,-7976,-57,81,39,-7170,-13824,-12291,2352,1475,-68,7322,33,2364
0,-124,-7976,-57,81,39,-7170,-13824,-12291,2352,1475,-68,7322,33,2364
0,-124,-7976,-57,81,39,-7170,-13824,-12291,2352,1475,-68,7322,33,2364
0,-124,-7976,-57,81,39,-7170,-13824,-12291,2352,1475,-68,7322,33,2364
0,-124,-7976,-57,81,39,-7170,-13824,-12291,2352,1475,-68,7322,33,2364
0,-124,-7976,-57,81,39,-7170,-13824,-12291,2352,1475,-68,7322,33,2364
0,-124,-7976,-57,81,39,-7170,-13824,-12291,2352,1475,-68,7322,33,2364
0,-124,-7976,-57,81,39,-7170,-13824,-12291,2352,1475,-68,7322,33,2364
0,-124,-7976,-57,81,39,-7170,-13824,-12291,2352,1475,-68,7322,33,2364
0,-124,-7976,-57,81,39,-7170,-13824,-12291,2352,1475,-68,7322,33,2364
0,-124,-7976,-57,81,39,-7170,-13824,-12291,2352,1475,-68,7322,33,2364
0,-124,-7976,-57,81,39,-7170,-13824,-12291,2352,1475,-68,7322,33,2364
0,-124,-7976,-57,81,39,-7170,-13824,-12291,2352,1475,-68,7322,33,2364
0,-124,-7976,-57,81,39,-7170,-13824,-12291,2352,1475,-68,7322,33,2364
0,-124,-7976,-57,81,39,-7170,-13824,-12291,2352,1475,-68,7322,33,2364
0,-124,-7976,-57,81,39,-7170,-13824,-12291,2352,1475,-68,7322,33,2364
0,-124,-7976,-57,81,39,-7170,-13824,-12291,2352,1475,-68,7322,33,2364
0,-124,-7976,-57,81,39,-7170,-13824,-12291,2352,1475,-68,7322,33,2364
0,-124,-7976,-57,81,39,-7170,-13824,-12291,2352,1475,-68,7322,33,2364
0,-124,-7976,-57,81,39,-7170,-13824,-12291,2352,1475,-68,7322,33,2364
0,-124,-7976,-57,81,39,-7170,-13824,-12291,2352,1475,-68,7322,33,2364
0,-124,-7976,-57,81,39,-7170,-13824,-12291,2352,1475,-68,7322,33,2364
0,-124,-7976,-57,81,39,-7170,-13824,-12291,2352,1475,-68,7322,33,2364
0,-124,-7976,-57,81,39,-7170,-13824,-12291,2352,1475,-68,7322,33,2364
0,-124,-7976,-57,81,39,-7170,-13824,-12291,2352,1475,-68,7322,33,2364
0,-124,-7976,-57,81,39,-7170,-13824,-12291,2352,1475,-68,7322,33,2364
0,-124,-7976,-57,81,39,-7170,-13824,-12291,2352,1475,-68,7322,33,2364
0,-124,-7976,-57,81,39,-7170,-13824,-12291,2352,1475,-68,7322,33,2364
0,-124,-7976,-57,81,39,-7170,-13824,-12291,2352,1475,-68,7322,33,2364
0,-124,-7976,-57,81,39,-7170,-13824,-12291,2352,1475,-68,7322,33,2364
0,-124,-7976,-57,81,39,-7170,-13824,-12291,2352,1475,-68,7322,33,2364
0,-124,-7976,-57,81,39,-7170,-13824,-12291,2352,1475,-68,7322,33,2364
0,-124,-7976,-57,81,39,-7170,-13824,-12291,2352,1475,-68,7322,33,2364
0,-124,-7976,-57,81,39,-7170,-13824,-12291,2352,1475,-68,7322,33,2364
0,-124,-7976,-57,81,39,-7170,-13824,-12291,2352,1475,-68,7322,33,2364
0,-124,-7976,-57,81,39,-7170,-13824,-12291,2352,1475,-68,7322,33,2364
0,-124,-7976,-57,81,39,-7170,-13824,-12291,2352,1475,-68,7322,33,2364
0,-124,-7976,-57,81,39,-7170,-13824,-12291,2352,1475,-68,7322,33,2364
0,-124,-7976,-57,81,39,-7170,-13824,-12291,2352,1475,-68,7322,33,2364
0,-124,-7976,-57,81,39,-7170,-13824,-12291,2352,1475,-68,7322,33,2364
0,-124,-7976,-57,81,39,-7170,-13824,-12291,2352,1475,-68,7322,33,2364
0,-124,-7976,-57,81,39,-7170,-13824,-12291,2352,1475,-68,7322,33,2364
0,-124,-7976,-57,81,39,-7170,-13824,-12291,2352,1475,-68,7322,33,2364
0,-124,-7976,-57,81,39,-7170,-13824,-12291,2352,1475,-68,7322,33,2364
0,-124,-7976,-57,81,39,-7170,-13824,-12291,2352,1475,-68,7322,33,2364
0,-124,-7976,-57,81,39,-7170,-13824,-12291,2352,1475,-68,7322,33,2364
0,-124,-7976,-57,81,39,-7170,-13824,-12291,2352,1475,-68,7322,33,2364
0,-124,-7976,-57,81,39,-7170,-13824,-12291,2352,1475,-68,7322,33,2364
0,-124,-7976,-57,81,39,-7170,-13824,-12291,2352,1475,-68,7322,33,2364
0,-124,-7976,-57,81,39,-7170,-13824,-12291,2352,1475,-68,7322,33,2364
0,-124,-7976,-57,81,39,-7170,-13824,-12291,2352,1475,-68,7322,33,2364
0,-124,-7976,-57,81,39,-7170,-13824,-12291,2352,1475,-68,7322,33,2364
0,-124,-7976,-57,81,39,-7170,-13824,-12291,2352,1475,-68,7322,33,2364
0,-124,-7976,-57,81,39,-7170,-13824,-12291,2352,1475,-68,7322,33,2364
0,-124,-7976,-57,81,39,-7170,-13824,-12291,2352,1475,-68,7322,33,2364
0,-124,-7976,-57,81,39,-7170,-13824,-12291,2352,1475,-68,7322,33,2364
0,-124,-7976,-57,81,39,-7170,-13824,-12291,2352,1475,-68,7322,33,2364
0,-124,-7976,-57,81,39,-7170,-13824,-12291,2352,1475,-68,7322,33,2364
0,-124,-7976,-57,81,39,-7170,-13824,-12291,2352,1475,-68,7322,33,2364
0,-124,-7976,-57,81,39,-7170,-13824,-12291,2352,1475,-68,7322,33,2364
0,-124,-7976,-57,81,39,-7170,-13824,-12291,2352,1475,-68,7322,33,2364
0,-124,-7976,-57,81,39,-7170,-13824,-12291,2352,1475,-68,7322,33,2364
0,-124,-7976,-57,81,39,-7170,-13824,-12291,2352,1475,-68,7322,33,2364
0,-124,-7976,-57,81,39,-7170,-13824,-12291,2352,1475,-68,7322,33,2364
0,-124,-7976,-57,81,39,-7170,-13824,-12291,2352,1475,-68,7322,33,2364
0,-124,-7976,-57,81,39,-7170,-13824,-12291,2352,1475,-68,7322,33,2364
0,-124,-7976,-57,81,39,-7170,-13824,-12291,2352,1475,-68,7322,33,2364
0,-124,-7976,-57,81,39,-7170,-13824,-12291,2352,1475,-68,7322,33,2364
0,-124,-7976,-57,81,39,-7170,-13824,-12291,2352,1475,-68,7322,33,2364
0,-124,-7976,-57,81,39,-7170,-13824,-12291,2352,1475,-68,7322,33,2364
0,-124,-7976,-57,81,39,-7170,-13824,-12291,2352,1475,-68,7322,33,2364
0,-124,-7976,-57,81,39,-7170,-13824,-12291,2352,1475,-68,7322,33,2364
0,-124,-7976,-57,81,39,-7170,-13824,-12291,2352,1475,-68,7322,33,2364
0,-124,-7976,-57,81,39,-7170,-13824,-12291,2352,1475,-68,7322,33,2364
0,-124,-7976,-57,81,39,-7170,-13824,-12291,2352,1475,-68,7322,33,2364
0,-124,-7976,-57,81,39,-7170,-13824,-12291,2352,1475,-68,7322,33,2364
0,-124,-7976,-57,81,39,-7170,-13824,-12291,2352,1475,-68,7322,33,2364
0,-124,-7976,-57,81,39,-7170,-13824,-12291,2352,1475,-68,7322,33,2364
0,-124,-7976,-57,81,39,-7170,-13824,-12291,2352,1475,-68,7322,33,2364
0,-124,-7976,-57,81,39,-7170,-13824,-12291,2352,1475,-68,7322,33,2364
0,-124,-7976,-57,81,39,-7170,-13824,-12291,2352,1475,-68,7322,33,2364
0,-124,-7976,-57,81,39,-7170,-13824,-12291,2352,1475,-68,7322,33,2364
0,-124,-7976,-57,81,39,-7170,-13824,-12291,2352,1475,-68,7322,33,2364
0,-124,-7976,-57,81,39,-7170,-13824,-12291,2352,1475,-68,7322,33,2364
0,-124,-7976,-57,81,39,-7170,-13824,-12291,2352,1475,-68,7322,33,2364
0,-124,-7976,-57,81,39,-7170,-13824,-12291,2352,1475,-68,7322,33,2364
0,-124,-7976,-57,81,39,-7170,-13824,-12291,2352,1475,-68,7322,33,2364
0,-124,-7976,-57,81,39,-7170,-13824,-12291,2352,1475,-68,7322,33,2364
0,-124,-7976,-57,81,39,-7170,-13824,-12291,2352,1475,-68,7322,33,2364
0,-124,-7976,-57,81,39,-7170,-13824,-12291,2352,1475,-68,7322,33,2364
0,-124,-7976,-57,81,39,-7170,-13824,-12291,2352,1475,-68,7322,33,2364
0,-124,-7976,-57,81,39,-7170,-13824,-12291,2352,1475,-68,7322,33,2364
0,-124,-7976,-57,81,39,-7170,-13824,-12291,2352,1475,-68,7322,33,2364
0,-124,-7976,-57,81,39,-7170,-13824,-12291,2352,1475,-68,7322,33,2364
0,-124,-7976,-57,81,39,-7170,-13824,-12291,2352,1475,-68,7322,33,2364
0,-124,-7976,-57,81,39,-7170,-13824,-12291,2352,1475,-68,7322,33,2364
0,-124,-7976,-57,81,39,-7170,-13824,-12291,2352,1475,-68,7322,33,2364
0,-124,-7976,-57,81,39,-7170,-13824,-12291,2352,1475,-68,7322,33,2364
0,-124,-7976,-57,81,39,-7170,-13824,-12291,2352,1475,-68,7322,33,2364
0,-124,-7976,-57,81,39,-7170,-13824,-12291,2352,1475,-68,7322,33,2364
0,-124,-7976,-57,81,39,-7170,-13824,-12291,2352,1475,-68,7322,33,2364
0,-124,-7976,-57,81,39,-7170,-13824,-12291,2352,1475,-68,7322,33,2364
0,-124,-7976,-57,81,39,-7170,-13824,-12291,2352,1475,-68,7322,33,2364
0,-124,-7976,-57,81,39,-7170,-13824,-12291,2352,1475,-68,7322,33,2364
0,-124,-7976,-57,81,39,-7170,-13824,-12291,2352,1475,-68,7322,33,2364
0,-124,-7976,-57,81,39,-7170,-13824,-12291,2352,1475,-68,7322,33,2364
0,-124,-7976,-57,81,39,-7170,-13824,-12291,2352,1475,-68,7322,33,2364
0,-124,-7976,-57,81,39,-7170,-13824,-12291,2352,1475,-68,7322,33,2364
0,-124,-7976,-57,81,39,-7170,-13824,-12291,2352,1475,-68,7322,33,2364
0,-124,-7976,-57,81,39,-7170,-13824,-12291,2352,1475,-68,7322,33,2364
0,-124,-7976,-57,81,39,-7170,-13824,-12291,2352,1475,-68,7322,33,2364
0,-124,-7976,-57,81,39,-7170,-13824,-12291,2352,1475,-68,7322,33,2364
0,-124,-7976,-57,81,39,-7170,-13824,-12291,2352,1475,-68,7322,33,2364
0,-124,-7976,-57,81,39,-7170,-13824,-12291,2352,1475,-68,7322,33,2364
0,-124,-7976,-57,81,39,-7170,-13824,-12291,2352,1475,-68,7322,33,2364
0,-124,-7976,-57,81,39,-7170,-13824,-12291,2352,1475,-68,7322,33,2364
0,-124,-7976,-57,81,39,-7170,-13824,-12291,2352,1475,-68,7322,33,2364
0,-124,-7976,-57,81,39,-7170,-13824,-12291,2352,1475,-68,7322,33,2364
0,-124,-7976,-57,81,39,-7170,-13824,-12291,2352,1475,-68,7322,33,2364
0,-124,-7976,-57,81,39,-7170,-13824,-12291,2352,1475,-68,7322,33,2364
0,-124,-7976,-57,81,39,-7170,-13824,-12291,2352,1475,-68,7322,33,2364
0,-124,-7976,-57,81,39,-7170,-13824,-12291,2352,1475,-68,7322,33,2364
0,-124,-7976,-57,81,39,-7170,-13824,-12291,2352,1475,-68,7322,33,2364
0,-124,-7976,-57,81,39,-7170,-13824,-12291,2352,1475,-68,7322,33,2364
0,-124,-7976,-57,81,39,-7170,-13824,-12291,2352,1475,-68,7322,33,2364
0,-124,-7976,-57,81,39,-7170,-13824,-12291,2352,1475,-68,7322,33,2364
0,-124,-7976,-57,81,39,-7170,-13824,-12291,2352,1475,-68,7322,33,2364
0,-124,-7976,-57,81,39,-7170,-13824,-12291,2352,1475,-68,7322,33,2364
0,-124,-7976,-57,81,39,-7170,-13824,-12291,2352,1475,-68,7322,33,2364
0,-124,-7976,-57,81,39,-7170,-13824,-12291,2352,1475,-68,7322,33,2364
0,-124,-7976,-57,81,39,-7170,-13824,-12291,2352,1475,-68,7322,33,2364
0,-124,-7976,-57,81,39,-7170,-13824,-12291,2352,1475,-68,7322,33,2364
0,-124,-7976,-57,81,39,-7170,-13824,-12291,2352,1475,-68,7322,33,2364
0,-124,-7976,-57,81,39,-7170,-13824,-12291,2352,1475,-68,7322,33,2364
0,-124,-7976,-57,81,39,-7170,-13824,-12291,2352,1475,-68,7322,33,2364
0,-124,-7976,-57,81,39,-7170,-13824,-12291,2352,1475,-68,7322,33,2364
0,-124,-7976,-57,81,39,-7170,-13824,-12291,2352,1475,-68,7322,33,2364
0,-124,-7976,-57,81,39,-7170,-13824,-12291,2352,1475,-68,7322,33,2364
0,-124,-7976,-57,81,39,-7170,-13824,-12291,2352,1475,-68,7322,33,2364
0,-124,-7976,-57,81,39,-7170,-13824,-12291,2352,1475,-68,7322,33,2364
-48,-128,-8020,-55,99,11,-7682,-11776,-14339,2354,1474,-101,7322,33,2345
-48,-128,-8020,-55,99,11,-7682,-11776,-14339,2354,1474,-101,7322,33,2345
-48,-128,-8020,-55,99,11,-7682,-11776,-14339,2354,1474,-101,7322,33,2345
-48,-128,-8020,-55,99,11,-7682,-11776,-14339,2354,1474,-101,7322,33,2345
-48,-128,-8020,-55,99,11,-7682,-11776,-14339,2354,1474,-101,7322,33,2345
-48,-128,-8020,-55,99,11,-7682,-11776,-14339,2354,1474,-101,7322,33,2345
-48,-128,-8020,-55,99,11,-7682,-11776,-14339,2354,1474,-101,7322,33,2345
-48,-128,-8020,-55,99,11,-7682,-11776,-14339,2354,1474,-101,7322,33,2345
-48,-128,-8020,-55,99,11,-7682,-11776,-14339,2354,1474,-101,7322,33,2345
-48,-128,-8020,-55,99,11,-7682,-11776,-14339,2354,1474,-101,7322,33,2345
-48,-128,-8020,-55,99,11,-7682,-11776,-14339,2354,1474,-101,7322,33,2345
-48,-128,-8020,-55,99,11,-7682,-11776,-14339,2354,1474,-101,7322,33,2345
-48,-128,-8020,-55,99,11,-7682,-11776,-14339,2354,1474,-101,7322,33,2345
-48,-128,-8020,-55,99,11,-7682,-11776,-14339,2372,1497,-85,7322,33,2345
4,-120,-8040,-87,84,22,-7426,-10240,-13315,2338,1459,-55,7322,33,2336
4,-120,-8040,-87,84,22,-7426,-10240,-13315,2338,1459,-55,7322,33,2336
-12,-104,-8012,-67,82,16,-6658,-8960,-13315,2338,1459,-55,7322,33,2336
-24,-152,-7980,-50,96,33,-8450,-11264,-13827,2330,1433,-90,7322,33,2355
28,-140,-8024,-82,76,11,-7938,-12288,-13827,2330,1433,-90,7322,33,2355
0,-108,-8012,-59,108,15,-6402,-11776,-12291,2360,1451,-147,7322,33,2364
0,-108,-8012,-59,108,15,-6402,-11776,-12291,2360,1451,-147,7322,33,2374
0,-108,-8012,-59,108,15,-6402,-11776,-12291,2360,1451,-147,7322,33,2374
0,-108,-8012,-59,108,15,-6402,-11776,-12291,2360,1451,-147,7322,33,2374
-20,-128,-7924,-66,85,13,-3586,-10240,-15107,2351,1461,-66,7322,33,2364
-20,-128,-7924,-66,85,13,-3586,-10240,-15107,2352,1454,-86,7322,33,2364
24,-156,-8000,-80,97,44,-6658,-9472,-13827,2352,1454,-86,7322,33,2364
24,-156,-8000,-80,97,44,-6658,-9472,-13827,2352,1454,-86,7322,33,2364
24,-156,-8000,-80,97,44,-6658,-9472,-13827,2352,1454,-86,7322,33,2364
24,-156,-8000,-80,97,44,-6658,-9472,-13827,2352,1454,-86,7322,33,2364
24,-156,-8000,-80,97,44,-6658,-9472,-13827,2352,1454,-86,7322,33,2364
24,-156,-8000,-80,97,44,-6658,-9472,-13827,2352,1454,-86,7322,33,2364
24,-156,-8000,-80,97,44,-6658,-9472,-13827,2352,1454,-86,7322,33,2364
24,-156,-8000,-80,97,44,-6658,-9472,-13827,2352,1454,-86,7322,33,2364
24,-156,-8000,-80,97,44,-6658,-9472,-13827,2352,1454,-86,7322,33,2364
24,-156,-8000,-80,97,44,-6658,-9472,-13827,2352,1454,-86,7322,33,2364
24,-156,-8000,-80,97,44,-6658,-9472,-13827,2352,1454,-86,7322,33,2364
4,-168,-7976,-46,92,28,-10242,-8448,-13571,2352,1454,-86,7322,33,2364
4,-168,-7976,-46,92,28,-10242,-8448,-13571,2341,1443,-97,7322,33,2364
4,-168,-7976,-46,92,28,-10242,-8448,-13571,2341,1443,-97,7322,33,2336
4,-168,-7976,-46,92,28,-10242,-8448,-13571,2341,1443,-97,7322,33,2336
4,-168,-7976,-46,92,28,-10242,-8448,-13571,2341,1443,-97,7322,33,2336
4,-168,-7976,-46,92,28,-10242,-8448,-13571,2341,1443,-97,7322,33,2336
4,-168,-7976,-46,92,28,-10242,-8448,-13571,2341,1443,-97,7322,33,2336
4,-168,-7976,-46,92,28,-10242,-8448,-13571,2341,1443,-97,7322,33,2336
4,-168,-7976,-46,92,28,-10242,-8448,-13571,2341,1443,-97,7322,33,2336
4,-168,-7976,-46,92,28,-10242,-8448,-13571,2341,1443,-97,7322,33,2336
-16,-116,-7940,-71,75,30,-5378,-10240,-13315,2377,1491,-76,7322,33,2374
60,-160,-7984,-56,85,44,-8962,-11264,-16131,2377,1491,-76,7322,33,2374
60,-160,-7984,-56,85,44,-8962,-11264,-16131,2377,1491,-76,7322,33,2374
60,-160,-7984,-56,85,44,-8962,-11264,-16131,2377,1491,-76,7322,33,2374
60,-160,-7984,-56,85,44,-8962,-11264,-16131,2377,1491,-76,7322,33,2374
60,-160,-7984,-56,85,44,-8962,-11264,-16131,2377,1491,-76,7322,33,2374
60,-160,-7984,-56,85,44,-8962,-11264,-16131,2377,1491,-76,7322,33,2374
60,-160,-7984,-56,85,44,-8962,-11264,-16131,2377,1491,-76,7322,33,2374
60,-160,-7984,-56,85,44,-8962,-11264,-16131,2377,1491,-76,7322,33,2374
60,-160,-7984,-56,85,44,-8962,-11264,-16131,2377,1491,-76,7322,33,2374
60,-160,-7984,-56,85,44,-8962,-11264,-16131,2360,1485,-84,7322,33,2364
60,-160,-7984,-56,85,44,-8962,-11264,-16131,2360,1485,-84,7322,33,2364
60,-160,-7984,-56,85,44,-8962,-11264,-16131,2360,1485,-84,7322,33,2364
20,-200,-8040,-60,95,18,-7682,-12544,-12291,2360,1485,-84,7322,33,2364
44,-176,-7988,-77,91,19,-7170,-9216,-13571,2344,1421,-113,7322,33,2383
44,-176,-7988,-77,91,19,-7170,-9216,-13571,2344,1421,-113,7322,33,2383
44,-176,-7988,-77,91,19,-7170,-9216,-13571,2344,1421,-113,7322,33,2383
44,-176,-7988,-77,91,19,-7170,-9216,-13571,2344,1421,-113,7322,33,2383
44,-176,-7988,-77,91,19,-7170,-9216,-13571,2344,1421,-113,7322,33,2383
44,-176,-7988,-77,91,19,-7170,-9216,-13571,2344,1421,-113,7322,33,2383
44,-176,-8028,-64,110,56,-7426,-11008,-12035,2344,1421,-113,7322,33,2383
44,-176,-8028,-64,110,56,-7426,-11008,-12035,2344,1421,-113,7322,33,2383
44,-176,-8028,-64,110,56,-7426,-11008,-12035,2344,1421,-113,7322,33,2383
44,-176,-8028,-64,110,56,-7426,-11008,-12035,2358,1461,-87,7322,33,2383
44,-176,-8028,-64,110,56,-7426,-11008,-12035,2358,1461,-87,7322,33,2383
44,-176,-8028,-64,110,56,-7426,-11008,-12035,2358,1461,-87,7322,33,2364
44,-176,-8028,-64,110,56,-7426,-11008,-12035,2358,1461,-87,7322,33,2364
44,-176,-8028,-64,110,56,-7426,-11008,-12035,2358,1461,-87,7322,33,2364
-24,-140,-8052,-65,80,32,-4610,-10496,-13059,2358,1461,-87,7322,33,2364
-24,-140,-8052,-65,80,32,-4610,-10496,-13059,2358,1461,-87,7322,33,2364
-24,-140,-8052,-65,80,32,-4610,-10496,-13059,2358,1461,-87,7322,33,2364
-24,-140,-8052,-65,80,32,-4610,-10496,-13059,2358,1461,-87,7322,33,2364
-24,-140,-8052,-65,80,32,-4610,-10496,-13059,2358,1461,-87,7322,33,2364
-24,-140,-8052,-65,80,32,-4610,-10496,-13059,2358,1461,-87,7322,33,2364
-24,-140,-8052,-65,80,32,-4610,-10496,-13059,2358,1461,-87,7322,33,2364
-24,-140,-8052,-65,80,32,-4610,-10496,-13059,2358,1461,-87,7322,33,2364
-24,-140,-8052,-65,80,32,-4610,-10496,-13059,2366,1463,-72,7322,33,2355
84,-164,-8012,-87,76,5,-4610,-10496,-13059,2366,1463,-72,7322,33,2355
84,-164,-8012,-87,76,5,-4610,-10496,-13059,2366,1463,-72,7322,33,2355
84,-164,-8012,-87,76,5,-4610,-10496,-13059,2366,1463,-72,7322,33,2355
84,-164,-8012,-87,76,5,-4610,-10496,-13059,2366,1463,-72,7322,33,2355
84,-164,-8012,-87,76,5,-4610,-10496,-13059,2366,1463,-72,7322,33,2355
84,-164,-8012,-87,76,5,-4610,-10496,-13059,2366,1463,-72,7322,33,2355
84,-164,-8012,-87,76,5,-4610,-10496,-13059,2366,1463,-72,7322,33,2355
84,-164,-8012,-87,76,5,-4610,-10496,-13059,2366,1463,-72,7322,33,2355
84,-164,-8012,-87,76,5,-4610,-10496,-13059,2366,1463,-72,7322,33,2355
84,-164,-8012,-87,76,5,-4610,-10496,-13059,2366,1463,-72,7322,33,2355
84,-164,-8012,-87,76,5,-4610,-10496,-13059,2366,1463,-72,7322,33,2355
84,-164,-8012,-87,76,5,-4610,-10496,-13059,2366,1463,-72,7322,33,2355
84,-164,-8012,-87,76,5,-4610,-10496,-13059,2366,1463,-72,7322,33,2355
84,-164,-8012,-87,76,5,-4610,-10496,-13059,2366,1463,-72,7322,33,2355
84,-164,-8012,-87,76,5,-4610,-10496,-13059,2366,1463,-72,7322,33,2355
-24,-116,-8052,-74,75,24,-6146,-8192,-14595,2357,1465,-124,7322,33,2355
-24,-116,-8052,-74,75,24,-6146,-8192,-14595,2357,1465,-124,7322,33,2355
-24,-116,-8052,-74,75,24,-6146,-8192,-14595,2357,1465,-124,7322,33,2355
-24,-116,-8052,-74,75,24,-6146,-8192,-14595,2357,1465,-124,7322,33,2355
8,-88,-8036,-53,91,8,-9218,-12800,-12035,2357,1465,-124,7322,33,2355
8,-88,-8036,-53,91,8,-9218,-12800,-12035,2357,1465,-124,7322,33,2355
8,-88,-8036,-53,91,8,-9218,-12800,-12035,2357,1465,-124,7322,33,2355
8,-88,-8036,-53,91,8,-9218,-12800,-12035,2357,1465,-124,7322,33,2355
8,-88,-8036,-53,91,8,-9218,-12800,-12035,2338,1453,-56,7322,33,2345
8,-88,-8036,-53,91,8,-9218,-12800,-12035,2338,1453,-56,7322,33,2345
8,-88,-8036,-53,91,8,-9218,-12800,-12035,2338,1453,-56,7322,33,2345
8,-88,-8036,-53,91,8,-9218,-12800,-12035,2338,1453,-56,7322,33,2345
8,-88,-8036,-53,91,8,-9218,-12800,-12035,2338,1453,-56,7322,33,2345
8,-88,-8036,-53,91,8,-9218,-12800,-12035,2338,1453,-56,7322,33,2345
8,-88,-8036,-53,91,8,-9218,-12800,-12035,2338,1453,-56,7322,33,2345
8,-88,-8036,-53,91,8,-9218,-12800,-12035,2338,1453,-56,7322,33,2345
8,-88,-8036,-53,91,8,-9218,-12800,-12035,2338,1453,-56,7322,33,2345
8,-88,-8036,-53,91,8,-9218,-12800,-12035,2338,1453,-56,7322,33,2345
8,-88,-8036,-53,91,8,-9218,-12800,-12035,2338,1453,-56,7322,33,2345
8,-88,-8036,-53,91,8,-9218,-12800,-12035,2338,1453,-56,7322,33,2345
8,-172,-7988,-72,68,25,-7682,-10496,-13059,2338,1453,-56,7322,33,2345
8,-172,-7988,-72,68,25,-7682,-10496,-13059,2338,1453,-56,7322,33,2345
8,-172,-7988,-72,68,25,-7682,-10496,-13059,2367,1464,-114,7322,0,0
8,-172,-7988,-72,68,25,-7682,-10496,-13059,2367,1464,-114,7322,33,2364
8,-172,-7988,-72,68,25,-7682,-10496,-13059,2367,1464,-114,7322,33,2364
8,-172,-7988,-72,68,25,-7682,-10496,-13059,2367,1464,-114,7322,33,2364
12,-104,-8016,-69,87,45,-6658,-11008,-12547,2367,1464,-114,7322,33,2364
12,-104,-8016,-69,87,45,-6658,-11008,-12547,2367,1464,-114,7322,33,2364
12,-104,-8016,-69,87,45,-6658,-11008,-12547,2367,1464,-114,7322,33,2364
12,-104,-8016,-69,87,45,-6658,-11008,-12547,2367,1464,-114,7322,33,2364
12,-104,-8016,-69,87,45,-6658,-11008,-12547,2367,1464,-114,7322,33,2364
12,-104,-8016,-69,87,45,-6658,-11008,-12547,2367,1464,-114,7322,33,2364
12,-104,-8016,-69,87,45,-6658,-11008,-12547,2367,1464,-114,7322,33,2364
12,-104,-8016,-69,87,45,-6658,-11008,-12547,2367,1464,-114,7322,33,2364
12,-104,-8016,-69,87,45,-6658,-11008,-12547,2367,1464,-114,7322,33,2364
12,-104,-8016,-69,87,45,-6658,-11008,-12547,2367,1464,-114,7322,33,2364
12,-104,-8016,-69,87,45,-6658,-11008,-12547,2367,1464,-114,7322,33,2364
12,-104,-8016,-69,87,45,-6658,-11008,-12547,2367,1464,-114,7322,33,2364
8,-124,-8024,-76,86,36,-6658,-10240,-12547,2356,1467,-102,7322,33,2364
8,-124,-8024,-76,86,36,-6658,-10240,-12547,2356,1467,-102,7322,33,2374
8,-124,-8024,-76,86,36,-6658,-10240,-12547,2356,1467,-102,7322,33,2374
8,-124,-8024,-76,86,36,-6658,-10240,-12547,2356,1467,-102,7322,33,2374
8,-124,-8024,-76,86,36,-6658,-10240,-12547,2356,1467,-102,7322,33,2374
8,-124,-8024,-76,86,36,-6658,-10240,-12547,2356,1467,-102,7322,33,2374
8,-124,-8024,-76,86,36,-6658,-10240,-12547,2356,1467,-102,7322,33,2374
8,-124,-8024,-76,86,36,-6658,-10240,-12547,2356,1467,-102,7322,33,2374
-4,-144,-7996,-48,83,19,-7426,-11008,-12035,2356,1467,-102,7322,33,2374
-4,-144,-7996,-48,83,19,-7426,-11008,-12035,2356,1467,-102,7322,33,2374
-4,-144,-7996,-48,83,19,-7426,-11008,-12035,2356,1467,-102,7322,33,2374
-4,-144,-7996,-48,83,19,-7426,-11008,-12035,2356,1467,-102,7322,33,2374
-4,-144,-7996,-48,83,19,-7426,-11008,-12035,2356,1467,-102,7322,33,2374
-4,-144,-7996,-48,83,19,-7426,-11008,-12035,2356,1467,-102,7322,33,2374
-4,-144,-7996,-48,83,19,-7426,-11008,-12035,2358,1489,-46,7322,33,2374
-4,-144,-7996,-48,83,19,-7426,-11008,-12035,2358,1489,-46,7322,33,2383
-4,-144,-7996,-48,83,19,-7426,-11008,-12035,2358,1489,-46,7322,33,2383
-4,-144,-7996,-48,83,19,-7426,-11008,-12035,2358,1489,-46,7322,33,2383
-4,-144,-7996,-48,83,19,-7426,-11008,-12035,2358,1489,-46,7322,33,2383
-4,-144,-7996,-48,83,19,-7426,-11008,-12035,2358,1489,-46,7322,33,2383
-4,-144,-7996,-48,83,19,-7426,-11008,-12035,2358,1489,-46,7322,33,2383
-4,-144,-7996,-48,83,19,-7426,-11008,-12035,2358,1489,-46,7322,33,2383
-4,-144,-7996,-48,83,19,-7426,-11008,-12035,2358,1489,-46,7322,33,2383
-4,-144,-7996,-48,83,19,-7426,-11008,-12035,2358,1489,-46,7322,33,2383
-12,-172,-8012,-68,85,32,-7170,-9984,-13059,2358,1489,-46,7322,33,2383
-12,-172,-8012,-68,85,32,-7170,-9984,-13059,2358,1489,-46,7322,33,2383
-12,-172,-8012,-68,85,32,-7170,-9984,-13059,2358,1489,-46,7322,33,2383
-12,-172,-8012,-68,85,32,-7170,-9984,-13059,2358,1489,-46,7322,33,2383
-12,-172,-8012,-68,85,32,-7170,-9984,-13059,2358,1489,-46,7322,33,2383
-12,-172,-8012,-68,85,32,-7170,-9984,-13059,2358,1489,-46,7322,33,2383
-12,-172,-8012,-68,85,32,-7170,-9984,-13059,2358,1489,-46,7322,33,2383
-12,-172,-8012,-68,85,32,-7170,-9984,-13059,2358,1489,-46,7322,33,2383
-12,-172,-8012,-68,85,32,-7170,-9984,-13059,2350,1457,-73,7322,33,2383
-12,-172,-8012,-68,85,32,-7170,-9984,-13059,2350,1457,-73,7322,33,2364
-12,-172,-8012,-68,85,32,-7170,-9984,-13059,2350,1457,-73,7322,33,2364
-12,-172,-8012,-68,85,32,-7170,-9984,-13059,2350,1457,-73,7322,33,2364
-12,-172,-8012,-68,85,32,-7170,-9984,-13059,2350,1457,-73,7322,33,2364
-12,-172,-8012,-68,85,32,-7170,-9984,-13059,2350,1457,-73,7322,33,2364
64,-164,-7976,-42,94,24,-7938,-12288,-13827,2350,1457,-73,7322,33,2364
64,-164,-7976,-42,94,24,-7938,-12288,-13827,2350,1457,-73,7322,33,2364
64,-164,-7976,-42,94,24,-7938,-12288,-13827,2350,1457,-73,7322,33,2364
64,-164,-7976,-42,94,24,-7938,-12288,-13827,2350,1457,-73,7322,33,2364
64,-164,-7976,-42,94,24,-7938,-12288,-13827,2350,1457,-73,7322,33,2364
64,-164,-7976,-42,94,24,-7938,-12288,-13827,2350,1457,-73,7322,33,2364
64,-164,-7976,-42,94,24,-7938,-12288,-13827,2350,1457,-73,7322,33,2364
64,-164,-7976,-42,94,24,-7938,-12288,-13827,2350,1457,-73,7322,33,2364
64,-164,-7976,-42,94,24,-7938,-12288,-13827,2337,1478,-84,7322,33,2364
64,-164,-7976,-42,94,24,-7938,-12288,-13827,2337,1478,-84,7322,33,2364
64,-164,-7976,-42,94,24,-7938,-12288,-13827,2337,1478,-84,7322,33,2364
64,-164,-7976,-42,94,24,-7938,-12288,-13827,2337,1478,-84,7322,33,2345
-40,-120,-7996,-66,85,30,-5890,-11264,-14851,2337,1478,-84,7322,33,2345
-40,-120,-7996,-66,85,30,-5890,-11264,-14851,2337,1478,-84,7322,33,2345
-40,-120,-7996,-66,85,30,-5890,-11264,-14851,2337,1478,-84,7322,33,2345
-40,-120,-7996,-66,85,30,-5890,-11264,-14851,2337,1478,-84,7322,33,2345
-40,-120,-7996,-66,85,30,-5890,-11264,-14851,2337,1478,-84,7322,33,2345
-40,-120,-7996,-66,85,30,-5890,-11264,-14851,2337,1478,-84,7322,33,2345
-40,-120,-7996,-66,85,30,-5890,-11264,-14851,2337,1478,-84,7322,33,2345
-40,-120,-7996,-66,85,30,-5890,-11264,-14851,2337,1478,-84,7322,33,2345
-40,-120,-7996,-66,85,30,-5890,-11264,-14851,2337,1478,-84,7322,33,2345
-40,-120,-7996,-66,85,30,-5890,-11264,-14851,2337,1478,-84,7322,33,2345
-40,-120,-7996,-66,85,30,-5890,-11264,-14851,2337,1478,-84,7322,33,2345
-40,-120,-7996,-66,85,30,-5890,-11264,-14851,2337,1478,-84,7322,33,2345
-40,-120,-7996,-66,85,30,-5890,-11264,-14851,2337,1478,-84,7322,33,2345
-12,-208,-8024,-68,78,23,-7426,-10240,-15875,2337,1478,-84,7322,33,2345
-12,-208,-8024,-68,78,23,-7426,-10240,-15875,2353,1474,-93,7322,33,2355
-12,-208,-8024,-68,78,23,-7426,-10240,-15875,2353,1474,-93,7322,33,2355
-12,-208,-8024,-68,78,23,-7426,-10240,-15875,2353,1474,-93,7322,33,2355
-12,-208,-8024,-68,78,23,-7426,-10240,-15875,2353,1474,-93,7322,33,2355
-12,-208,-8024,-68,78,23,-7426,-10240,-15875,2353,1474,-93,7322,33,2355
-12,-208,-8024,-68,78,23,-7426,-10240,-15875,2353,1474,-93,7322,33,2355
-12,-208,-8024,-68,78,23,-7426,-10240,-15875,2353,1474,-93,7322,33,2355
-12,-208,-8024,-68,78,23,-7426,-10240,-15875,2353,1474,-93,7322,33,2355
24,-124,-8036,-54,61,45,-8450,-9984,-15619,2353,1474,-93,7322,33,2355
24,-124,-8036,-54,61,45,-8450,-9984,-15619,2353,1474,-93,7322,33,2355
24,-124,-8036,-54,61,45,-8450,-9984,-15619,2353,1474,-93,7322,33,2355
24,-124,-8036,-54,61,45,-8450,-9984,-15619,2353,1474,-93,7322,33,2355
24,-124,-8036,-54,61,45,-8450,-9984,-15619,2353,1474,-93,7322,33,2355
24,-124,-8036,-54,61,45,-8450,-9984,-15619,2353,1474,-93,7322,33,2355
24,-124,-8036,-54,61,45,-8450,-9984,-15619,2353,1474,-93,7322,33,2355
24,-124,-8036,-54,61,45,-8450,-9984,-15619,2353,1474,-93,7322,33,2355
24,-124,-8036,-54,61,45,-8450,-9984,-15619,2339,1443,-72,7322,33,2364
24,-124,-8036,-54,61,45,-8450,-9984,-15619,2339,1443,-72,7322,33,2364
24,-124,-8036,-54,61,45,-8450,-9984,-15619,2339,1443,-72,7322,33,2364
-4,-180,-8036,-83,78,32,-8450,-10496,-16643,2339,1443,-72,7322,33,2364
-4,-180,-8036,-83,78,32,-8450,-10496,-16643,2339,1443,-72,7322,33,2364
-4,-180,-8036,-83,78,32,-8450,-10496,-16643,2339,1443,-72,7322,33,2364
-4,-180,-8036,-83,78,32,-8450,-10496,-16643,2339,1443,-72,7322,33,2364
-4,-180,-8036,-83,78,32,-8450,-10496,-16643,2339,1443,-72,7322,33,2364
-4,-180,-8036,-83,78,32,-8450,-10496,-16643,2339,1443,-72,7322,33,2364
-4,-180,-8036,-83,78,32,-8450,-10496,-16643,2339,1443,-72,7322,33,2364
-4,-180,-8036,-83,78,32,-8450,-10496,-16643,2339,1443,-72,7322,33,2364
-4,-180,-8036,-83,78,32,-8450,-10496,-16643,2343,1484,-86,7322,33,2364
-4,-180,-8036,-83,78,32,-8450,-10496,-16643,2343,1484,-86,7322,33,2336
-4,-180,-8036,-83,78,32,-8450,-10496,-16643,2343,1484,-86,7322,33,2336
-4,-180,-8036,-83,78,32,-8450,-10496,-16643,2343,1484,-86,7322,33,2336
0,-144,-8036,-68,61,37,-7682,-13312,-14851,2343,1484,-86,7322,33,2336
0,-144,-8036,-68,61,37,-7682,-13312,-14851,2343,1484,-86,7322,33,2336
0,-144,-8036,-68,61,37,-7682,-13312,-14851,2343,1484,-86,7322,33,2336
0,-144,-8036,-68,61,37,-7682,-13312,-14851,2343,1484,-86,7322,33,2336
0,-144,-8036,-68,61,37,-7682,-13312,-14851,2343,1484,-86,7322,33,2336
8,-148,-8028,-98,89,33,-7938,-9472,-15875,2343,1484,-86,7322,33,2336
8,-148,-8028,-98,89,33,-7938,-9472,-15875,2344,1443,-151,7322,33,2336
8,-148,-8028,-98,89,33,-7938,-9472,-15875,2344,1443,-151,7322,33,2383
8,-148,-8028,-98,89,33,-7938,-9472,-15875,2344,1443,-151,7322,33,2383
36,-92,-8060,-62,84,18,-7426,-10240,-12035,2344,1443,-151,7322,33,2383
36,-92,-8060,-62,84,18,-7426,-10240,-12035,2344,1443,-151,7322,33,2383
36,-92,-8060,-62,84,18,-7426,-10240,-12035,2354,1413,-86,7322,33,2383
36,-92,-8060,-62,84,18,-7426,-10240,-12035,2354,1413,-86,7322,33,2392
36,-92,-8060,-62,84,18,-7426,-10240,-12035,2354,1413,-86,7322,33,2392
36,-92,-8060,-62,84,18,-7426,-10240,-12035,2354,1413,-86,7322,33,2392
36,-92,-8060,-62,84,18,-7426,-10240,-12035,2354,1413,-86,7322,33,2392
8,-88,-8008,-58,86,8,-7170,-8448,-15619,2354,1413,-86,7322,33,2392
8,-88,-8008,-58,86,8,-7170,-8448,-15619,2354,1413,-86,7322,33,2392
8,-88,-8008,-58,86,8,-7170,-8448,-15619,2354,1413,-86,7322,33,2392
8,-88,-8008,-58,86,8,-7170,-8448,-15619,2354,1413,-86,7322,33,2392
8,-88,-8008,-58,86,8,-7170,-8448,-15619,2354,1413,-86,7322,33,2392
8,-88,-8008,-58,86,8,-7170,-8448,-15619,2354,1413,-86,7322,33,2392
8,-88,-8008,-58,86,8,-7170,-8448,-15619,2354,1413,-86,7322,33,2392
8,-88,-8008,-58,86,8,-7170,-8448,-15619,2354,1413,-86,7322,33,2392
8,-88,-8008,-58,86,8,-7170,-8448,-15619,2354,1413,-86,7322,33,2392
8,-88,-8008,-58,86,8,-7170,-8448,-15619,2354,1413,-86,7322,33,2392
8,-88,-8008,-58,86,8,-7170,-8448,-15619,2360,1479,-107,7322,33,2374
16,-140,-8000,-56,79,22,-5890,-11776,-14851,2360,1479,-107,7322,33,2374
16,-140,-8000,-56,79,22,-5890,-11776,-14851,2360,1479,-107,7322,33,2374
16,-140,-8000,-56,79,22,-5890,-11776,-14851,2360,1479,-107,7322,33,2374
16,-140,-8000,-56,79,22,-5890,-11776,-14851,2360,1479,-107,7322,33,2374
16,-140,-8000,-56,79,22,-5890,-11776,-14851,2360,1479,-107,7322,33,2374
16,-140,-8000,-56,79,22,-5890,-11776,-14851,2360,1479,-107,7322,33,2374
16,-140,-8000,-56,79,22,-5890,-11776,-14851,2360,1479,-107,7322,33,2374
16,-140,-8000,-56,79,22,-5890,-11776,-14851,2360,1479,-107,7322,33,2374
16,-140,-8000,-56,79,22,-5890,-11776,-14851,2360,1479,-107,7322,33,2374
16,-140,-8000,-56,79,22,-5890,-11776,-14851,2360,1479,-107,7322,33,2374
16,-140,-8000,-56,79,22,-5890,-11776,-14851,2360,1479,-107,7322,33,2374
16,-140,-8000,-56,79,22,-5890,-11776,-14851,2360,1479,-107,7322,33,2374
-12,-200,-7988,-62,89,31,-5890,-11776,-14851,2360,1479,-107,7322,33,2374
-12,-200,-7988,-62,89,31,-5890,-11776,-14851,2360,1479,-107,7322,33,2374
-12,-200,-7988,-62,89,31,-5890,-11776,-14851,2360,1479,-107,7322,33,2374
-12,-200,-7988,-62,89,31,-5890,-11776,-14851,2360,1479,-107,7322,33,2374
-12,-200,-7988,-62,89,31,-5890,-11776,-14851,2356,1480,-101,7322,33,2374
-12,-200,-7988,-62,89,31,-5890,-11776,-14851,2356,1480,-101,7322,33,2355
-12,-200,-7988,-62,89,31,-5890,-11776,-14851,2356,1480,-101,7322,33,2355
-12,-200,-7988,-62,89,31,-5890,-11776,-14851,2356,1480,-101,7322,33,2355
-12,-200,-7988,-62,89,31,-5890,-11776,-14851,2356,1480,-101,7322,33,2355
-8,-56,-8020,-72,83,47,-8706,-10240,-13827,2356,1480,-101,7322,33,2355
-8,-56,-8020,-72,83,47,-8706,-10240,-13827,2356,1480,-101,7322,33,2355
-8,-56,-8020,-72,83,47,-8706,-10240,-13827,2356,1480,-101,7322,33,2355
-8,-56,-8020,-72,83,47,-8706,-10240,-13827,2356,1480,-101,7322,33,2355
-8,-56,-8020,-72,83,47,-8706,-10240,-13827,2356,1480,-101,7322,33,2355
-8,-56,-8020,-72,83,47,-8706,-10240,-13827,2356,1480,-101,7322,33,2355
-8,-56,-8020,-72,83,47,-8706,-10240,-13827,2356,1480,-101,7322,33,2355
-8,-56,-8020,-72,83,47,-8706,-10240,-13827,2356,1480,-101,7322,33,2355
-8,-56,-8020,-72,83,47,-8706,-10240,-13827,2356,1480,-101,7322,33,2355
-8,-56,-8020,-72,83,47,-8706,-10240,-13827,2356,1480,-101,7322,33,2355
-8,-56,-8020,-72,83,47,-8706,-10240,-13827,2375,1454,-130,7322,33,2355
-8,-56,-8020,-72,83,47,-8706,-10240,-13827,2375,1454,-130,7322,33,2374
52,-144,-7992,-61,91,25,-5890,-10496,-12291,2375,1454,-130,7322,33,2374
52,-144,-7992,-61,91,25,-5890,-10496,-12291,2375,1454,-130,7322,33,2374
52,-144,-7992,-61,91,25,-5890,-10496,-12291,2375,1454,-130,7322,33,2374
52,-144,-7992,-61,91,25,-5890,-10496,-12291,2375,1454,-130,7322,33,2374
52,-144,-7992,-61,91,25,-5890,-10496,-12291,2375,1454,-130,7322,33,2374
52,-144,-7992,-61,91,25,-5890,-10496,-12291,2375,1454,-130,7322,33,2374
52,-144,-7992,-61,91,25,-5890,-10496,-12291,2375,1454,-130,7322,33,2374
52,-144,-7992,-61,91,25,-5890,-10496,-12291,2375,1454,-130,7322,33,2374
52,-144,-7992,-61,91,25,-5890,-10496,-12291,2375,1454,-130,7322,33,2374
52,-144,-7992,-61,91,25,-5890,-10496,-12291,2375,1454,-130,7322,33,2374
52,-144,-7992,-61,91,25,-5890,-10496,-12291,2375,1454,-130,7322,33,2374
52,-144,-7992,-61,91,25,-5890,-10496,-12291,2375,1454,-130,7322,33,2374
52,-136,-7996,-68,66,22,-7426,-9472,-12035,2375,1454,-130,7322,33,2374
52,-136,-7996,-68,66,22,-7426,-9472,-12035,2375,1454,-130,7322,33,2374
52,-136,-7996,-68,66,22,-7426,-9472,-12035,2375,1454,-130,7322,33,2374
52,-136,-7996,-68,66,22,-7426,-9472,-12035,2348,1450,-83,7322,33,2345
52,-136,-7996,-68,66,22,-7426,-9472,-12035,2348,1450,-83,7322,33,2345
52,-136,-7996,-68,66,22,-7426,-9472,-12035,2348,1450,-83,7322,33,2345
52,-136,-7996,-68,66,22,-7426,-9472,-12035,2348,1450,-83,7322,33,2345
52,-136,-7996,-68,66,22,-7426,-9472,-12035,2348,1450,-83,7322,33,2345
52,-136,-7996,-68,66,22,-7426,-9472,-12035,2348,1450,-83,7322,33,2345
52,-136,-7996,-68,66,22,-7426,-9472,-12035,2348,1450,-83,7322,33,2345
-20,-128,-8020,-71,104,15,-7426,-11008,-12035,2348,1450,-83,7322,33,2345
-20,-128,-8020,-71,104,15,-7426,-11008,-12035,2348,1450,-83,7322,33,2345
-20,-128,-8020,-71,104,15,-7426,-11008,-12035,2348,1450,-83,7322,33,2345
-20,-128,-8020,-71,104,15,-7426,-11008,-12035,2348,1450,-83,7322,33,2345
-20,-128,-8020,-71,104,15,-7426,-11008,-12035,2348,1450,-83,7322,33,2345
-20,-128,-8020,-71,104,15,-7426,-11008,-12035,2348,1450,-83,7322,33,2345
-20,-128,-8020,-71,104,15,-7426,-11008,-12035,2348,1450,-83,7322,33,2345
-20,-128,-8020,-71,104,15,-7426,-11008,-12035,2348,1450,-83,7322,33,2345
-20,-128,-8020,-71,104,15,-7426,-11008,-12035,2341,1470,-104,7322,33,2345
-20,-128,-8020,-71,104,15,-7426,-11008,-12035,2341,1470,-104,7322,0,0
-20,-128,-8020,-71,104,15,-7426,-11008,-12035,2341,1470,-104,7322,33,2355
-20,-128,-8020,-71,104,15,-7426,-11008,-12035,2341,1470,-104,7322,33,2355
-20,-128,-8020,-71,104,15,-7426,-11008,-12035,2341,1470,-104,7322,33,2355
-20,-128,-8020,-71,104,15,-7426,-11008,-12035,2341,1470,-104,7322,33,2355
-20,-128,-8020,-71,104,15,-7426,-11008,-12035,2341,1470,-104,7322,33,2355
-12,-144,-7984,-57,97,33,-5378,-11008,-12547,2341,1470,-104,7322,33,2355
-12,-144,-7984,-57,97,33,-5378,-11008,-12547,2341,1470,-104,7322,33,2355
-12,-144,-7984,-57,97,33,-5378,-11008,-12547,2341,1470,-104,7322,33,2355
-12,-144,-7984,-57,97,33,-5378,-11008,-12547,2341,1470,-104,7322,33,2355
-12,-144,-7984,-57,97,33,-5378,-11008,-12547,2341,1470,-104,7322,33,2355
-12,-144,-7984,-57,97,33,-5378,-11008,-12547,2341,1470,-104,7322,33,2355
-12,-144,-7984,-57,97,33,-5378,-11008,-12547,2341,1470,-104,7322,33,2355
-12,-144,-7984,-57,97,33,-5378,-11008,-12547,2345,1458,-14,7322,33,2355
-12,-144,-7984,-57,97,33,-5378,-11008,-12547,2345,1458,-14,7322,33,2374
-12,-144,-7984,-57,97,33,-5378,-11008,-12547,2345,1458,-14,7322,33,2374
12,-124,-8008,-74,88,31,-8450,-10496,-15619,2345,1458,-14,7322,33,2374
12,-124,-8008,-74,88,31,-8450,-10496,-15619,2345,1458,-14,7322,33,2374
12,-124,-8008,-74,88,31,-8450,-10496,-15619,2345,1458,-14,7322,33,2374
12,-124,-8008,-74,88,31,-8450,-10496,-15619,2345,1458,-14,7322,33,2374
12,-124,-8008,-74,88,31,-8450,-10496,-15619,2345,1458,-14,7322,33,2374
12,-124,-8008,-74,88,31,-8450,-10496,-15619,2345,1458,-14,7322,33,2374
-16,-152,-8016,-73,84,29,-7938,-11520,-14595,2344,1449,-95,7322,33,2392
-24,-88,-8012,-67,69,30,-7938,-13568,-12547,2375,1504,-65,7322,33,2420
-24,-88,-8012,-67,69,30,-7938,-13568,-12547,2375,1504,-65,7322,33,2420
-24,-88,-8012,-67,69,30,-7938,-13568,-12547,2375,1504,-65,7322,33,2420
-24,-88,-8012,-67,69,30,-7938,-13568,-12547,2375,1504,-65,7322,33,2420
-24,-88,-8012,-67,69,30,-7938,-13568,-12547,2375,1504,-65,7322,33,2420
-24,-88,-8012,-67,69,30,-7938,-13568,-12547,2375,1504,-65,7322,33,2420
-24,-88,-8012,-67,69,30,-7938,-13568,-12547,2375,1504,-65,7322,33,2420
-24,-88,-8012,-67,69,30,-7938,-13568,-12547,2375,1504,-65,7322,33,2420
-24,-88,-8012,-67,69,30,-7938,-13568,-12547,2375,1504,-65,7322,33,2420
-24,-88,-8012,-67,69,30,-7938,-13568,-12547,2375,1504,-65,7322,33,2420
-24,-88,-8012,-67,69,30,-7938,-13568,-12547,2375,1504,-65,7322,33,2420
-24,-88,-8012,-67,69,30,-7938,-13568,-12547,2375,1504,-65,7322,33,2420
-24,-88,-8012,-67,69,30,-7938,-13568,-12547,2375,1504,-65,7322,33,2420
-24,-88,-8012,-67,69,30,-7938,-13568,-12547,2375,1504,-65,7322,33,2420
-24,-88,-8012,-67,69,30,-7938,-13568,-12547,2375,1504,-65,7322,33,2420
-24,-88,-8012,-67,69,30,-7938,-13568,-12547,2375,1504,-65,7322,33,2420
-24,-88,-8012,-67,69,30,-7938,-13568,-12547,2375,1504,-65,7322,33,2420
-24,-88,-8012,-67,69,30,-7938,-13568,-12547,2375,1504,-65,7322,33,2420
-24,-88,-8012,-67,69,30,-7938,-13568,-12547,2375,1504,-65,7322,33,2420
-24,-88,-8012,-67,69,30,-7938,-13568,-12547,2375,1504,-65,7322,33,2420
-24,-88,-8012,-67,69,30,-7938,-13568,-12547,2375,1504,-65,7322,33,2420
-24,-88,-8012,-67,69,30,-7938,-13568,-12547,2375,1504,-65,7322,33,2420
20,-88,-7952,-78,103,18,-9218,-12800,-10755,2346,1473,-49,7322,33,2345
20,-88,-7952,-78,103,18,-9218,-12800,-10755,2346,1473,-49,7322,33,2345
20,-88,-7952,-78,103,18,-9218,-12800,-10755,2346,1473,-49,7322,33,2345
-88,-172,-7984,-60,96,25,-4866,-11008,-15107,2346,1473,-49,7322,33,2345
-88,-172,-7984,-60,96,25,-4866,-11008,-15107,2346,1473,-49,7322,33,2345
-88,-172,-7984,-60,96,25,-4866,-11008,-15107,2371,1470,-77,7322,33,2402
-88,-172,-7984,-60,96,25,-4866,-11008,-15107,2371,1470,-77,7322,33,2402
-88,-172,-7984,-60,96,25,-4866,-11008,-15107,2371,1470,-77,7322,33,2402
-88,-172,-7984,-60,96,25,-4866,-11008,-15107,2371,1470,-77,7322,33,2402
-88,-172,-7984,-60,96,25,-4866,-11008,-15107,2371,1470,-77,7322,33,2402
-88,-172,-7984,-60,96,25,-4866,-11008,-15107,2371,1470,-77,7322,33,2402
-88,-172,-7984,-60,96,25,-4866,-11008,-15107,2371,1470,-77,7322,33,2402
-8,-140,-8000,-39,79,17,-8450,-10496,-17411,2371,1470,-77,7322,33,2402
-44,-136,-7960,-64,79,33,-7426,-13568,-13827,2371,1470,-77,7322,33,2402
-44,-136,-7960,-64,79,33,-7426,-13568,-13827,2382,1460,-104,7322,33,2392
-44,-136,-7960,-64,79,33,-7426,-13568,-13827,2382,1460,-104,7322,33,2392
-44,-136,-7960,-64,79,33,-7426,-13568,-13827,2382,1460,-104,7322,33,2392
-44,-136,-7960,-64,79,33,-7426,-13568,-13827,2382,1460,-104,7322,33,2392
8,-136,-8024,-78,91,14,-5890,-10496,-14851,2382,1460,-104,7322,33,2392
4,-116,-7984,-81,78,39,-5890,-13312,-11011,2339,1432,-102,7322,33,2355
4,-116,-7984,-81,78,39,-5890,-13312,-11011,2339,1432,-102,7322,33,2355
4,-116,-7984,-81,78,39,-5890,-13312,-11011,2348,1436,-116,7322,33,2374
4,-116,-7984,-81,78,39,-5890,-13312,-11011,2348,1436,-116,7322,33,2374
4,-116,-7984,-81,78,39,-5890,-13312,-11011,2348,1436,-116,7322,33,2374
4,-116,-7984,-81,78,39,-5890,-13312,-11011,2348,1436,-116,7322,33,2374
-36,-132,-8000,-98,76,6,-9218,-11520,-15107,2348,1436,-116,7322,33,2374
-36,-132,-8000,-98,76,6,-9218,-11520,-15107,2348,1436,-116,7322,33,2374
-36,-132,-8000,-98,76,6,-9218,-11520,-15107,2348,1436,-116,7322,33,2374
-36,-132,-8000,-98,76,6,-9218,-11520,-15107,2348,1436,-116,7322,33,2374
-36,-132,-8000,-98,76,6,-9218,-11520,-15107,2348,1436,-116,7322,33,2374
-36,-132,-8000,-98,76,6,-9218,-11520,-15107,2348,1436,-116,7322,33,2374
-36,-132,-8000,-98,76,6,-9218,-11520,-15107,2348,1436,-116,7322,33,2374
-36,-132,-8000,-98,76,6,-9218,-11520,-15107,2348,1436,-116,7322,33,2374
-36,-132,-8000,-98,76,6,-9218,-11520,-15107,2348,1436,-116,7322,33,2374
-36,-132,-8000,-98,76,6,-9218,-11520,-15107,2348,1436,-116,7322,33,2374
-36,-132,-8000,-98,76,6,-9218,-11520,-15107,2370,1485,-58,7322,33,2355
-36,-132,-8000,-98,76,6,-9218,-11520,-15107,2370,1485,-58,7322,33,2355
20,-140,-8036,-76,65,39,-5890,-13824,-17411,2370,1485,-58,7322,33,2355
20,-140,-8036,-76,65,39,-5890,-13824,-17411,2370,1485,-58,7322,33,2355
20,-140,-8036,-76,65,39,-5890,-13824,-17411,2370,1485,-58,7322,33,2355
20,-140,-8036,-76,65,39,-5890,-13824,-17411,2370,1485,-58,7322,33,2355
20,-140,-8036,-76,65,39,-5890,-13824,-17411,2370,1485,-58,7322,33,2355
20,-140,-8036,-76,65,39,-5890,-13824,-17411,2370,1485,-58,7322,33,2355
20,-140,-8036,-76,65,39,-5890,-13824,-17411,2370,1485,-58,7322,33,2355
20,-140,-8036,-76,65,39,-5890,-13824,-17411,2370,1485,-58,7322,33,2355
-8,-152,-7968,-77,98,20,-6658,-12288,-15107,2370,1485,-58,7322,33,2355
-8,-152,-7968,-77,98,20,-6658,-12288,-15107,2370,1485,-58,7322,33,2355
-8,-152,-7968,-77,98,20,-6658,-12288,-15107,2343,1473,-101,7322,33,2345
-8,-152,-7968,-77,98,20,-6658,-12288,-15107,2343,1473,-101,7322,33,2345
-8,-152,-7968,-77,98,20,-6658,-12288,-15107,2343,1473,-101,7322,33,2345
-8,-152,-7968,-77,98,20,-6658,-12288,-15107,2343,1473,-101,7322,33,2345
-8,-152,-7968,-77,98,20,-6658,-12288,-15107,2343,1473,-101,7322,33,2345
-8,-152,-7968,-77,98,20,-6658,-12288,-15107,2343,1473,-101,7322,33,2345
-8,-152,-7968,-77,98,20,-6658,-12288,-15107,2343,1473,-101,7322,33,2345
-24,-192,-7988,-49,92,48,-5890,-11264,-13571,2355,1470,-81,7322,33,2364
-24,-192,-7988,-49,92,48,-5890,-11264,-13571,2355,1470,-81,7322,33,2364
-24,-192,-7988,-49,92,48,-5890,-11264,-13571,2355,1470,-81,7322,33,2364
4,-196,-8004,-75,94,18,-8962,-12544,-13571,2355,1470,-81,7322,33,2364
4,-196,-8004,-75,94,18,-8962,-12544,-13571,2355,1470,-81,7322,33,2364
4,-196,-8004,-75,94,18,-8962,-12544,-13571,2355,1470,-81,7322,33,2364
4,-196,-8004,-75,94,18,-8962,-12544,-13571,2355,1470,-81,7322,33,2364
4,-196,-8004,-75,94,18,-8962,-12544,-13571,2355,1470,-81,7322,33,2364
4,-196,-8004,-75,94,18,-8962,-12544,-13571,2355,1470,-81,7322,33,2364
4,-196,-8004,-75,94,18,-8962,-12544,-13571,2355,1470,-81,7322,33,2364
4,-196,-8004,-75,94,18,-8962,-12544,-13571,2360,1490,-33,7322,33,2364
-20,-100,-7952,-71,100,33,-6402,-11264,-14339,2360,1490,-33,7322,33,2383
-20,-100,-7952,-71,100,33,-6402,-11264,-14339,2360,1490,-33,7322,33,2383
-20,-100,-7952,-71,100,33,-6402,-11264,-14339,2360,1490,-33,7322,33,2383
-20,-100,-7952,-71,100,33,-6402,-11264,-14339,2360,1490,-33,7322,33,2383
-20,-100,-7952,-71,100,33,-6402,-11264,-14339,2360,1490,-33,7322,33,2383
-20,-100,-7952,-71,100,33,-6402,-11264,-14339,2360,1490,-33,7322,33,2383
-20,-100,-7952,-71,100,33,-6402,-11264,-14339,2360,1490,-33,7322,33,2383
72,-112,-8032,-56,78,33,-6146,-7680,-13827,2360,1490,-33,7322,33,2383
72,-112,-8032,-56,78,33,-6146,-7680,-13827,2360,1490,-33,7322,33,2383
72,-112,-8032,-56,78,33,-6146,-7680,-13827,2350,1440,-80,7322,33,2383
72,-112,-8032,-56,78,33,-6146,-7680,-13827,2350,1440,-80,7322,33,2383
72,-112,-8032,-56,78,33,-6146,-7680,-13827,2350,1440,-80,7322,33,2374
72,-112,-8032,-56,78,33,-6146,-7680,-13827,2350,1440,-80,7322,33,2374
72,-112,-8032,-56,78,33,-6146,-7680,-13827,2350,1440,-80,7322,33,2374
72,-112,-8032,-56,78,33,-6146,-7680,-13827,2350,1440,-80,7322,33,2374
72,-112,-8032,-56,78,33,-6146,-7680,-13827,2350,1440,-80,7322,33,2374
72,-112,-8032,-56,78,33,-6146,-7680,-13827,2350,1440,-80,7322,33,2374
72,-112,-8032,-56,78,33,-6146,-7680,-13827,2350,1440,-80,7322,33,2374
72,-112,-8032,-56,78,33,-6146,-7680,-13827,2350,1440,-80,7322,33,2374
72,-112,-8032,-56,78,33,-6146,-7680,-13827,2350,1440,-80,7322,33,2374
72,-112,-8032,-56,78,33,-6146,-7680,-13827,2350,1440,-80,7322,33,2374
72,-112,-8032,-56,78,33,-6146,-7680,-13827,2350,1440,-80,7322,33,2374
16,-124,-8028,-62,87,23,-6658,-10240,-10755,2350,1440,-80,7322,33,2374
16,-124,-8028,-62,87,23,-6658,-10240,-10755,2350,1440,-80,7322,33,2374
16,-124,-8028,-62,87,23,-6658,-10240,-10755,2350,1440,-80,7322,33,2374
16,-124,-8028,-62,87,23,-6658,-10240,-10755,2350,1440,-80,7322,33,2374
16,-124,-8028,-62,87,23,-6658,-10240,-10755,2350,1440,-80,7322,33,2374
16,-124,-8028,-62,87,23,-6658,-10240,-10755,2350,1440,-80,7322,33,2374
16,-124,-8028,-62,87,23,-6658,-10240,-10755,2348,1439,-87,7322,33,2364
16,-124,-8028,-62,87,23,-6658,-10240,-10755,2348,1439,-87,7322,33,2364
16,-124,-8028,-62,87,23,-6658,-10240,-10755,2348,1439,-87,7322,33,2364
16,-124,-8028,-62,87,23,-6658,-10240,-10755,2348,1439,-87,7322,33,2364
40,-128,-8016,-87,84,36,-7426,-13568,-14595,2348,1439,-87,7322,33,2364
40,-128,-8016,-87,84,36,-7426,-13568,-14595,2348,1439,-87,7322,33,2364
40,-128,-8016,-87,84,36,-7426,-13568,-14595,2348,1439,-87,7322,33,2364
40,-128,-8016,-87,84,36,-7426,-13568,-14595,2348,1439,-87,7322,33,2364
40,-128,-8016,-87,84,36,-7426,-13568,-14595,2348,1439,-87,7322,33,2364
40,-128,-8016,-87,84,36,-7426,-13568,-14595,2348,1439,-87,7322,33,2364
40,-128,-8016,-87,84,36,-7426,-13568,-14595,2348,1439,-87,7322,33,2364
40,-128,-8016,-87,84,36,-7426,-13568,-14595,2348,1439,-87,7322,33,2364
40,-128,-8016,-87,84,36,-7426,-13568,-14595,2348,1439,-87,7322,33,2364
40,-128,-8016,-87,84,36,-7426,-13568,-14595,2348,1439,-87,7322,33,2364
40,-128,-8016,-87,84,36,-7426,-13568,-14595,2348,1439,-87,7322,33,2364
40,-128,-8016,-87,84,36,-7426,-13568,-14595,2348,1439,-87,7322,33,2364
40,-128,-8016,-87,84,36,-7426,-13568,-14595,2348,1439,-87,7322,33,2364
40,-128,-8016,-87,84,36,-7426,-13568,-14595,2348,1439,-87,7322,33,2364
40,-128,-8016,-87,84,36,-7426,-13568,-14595,2348,1439,-87,7322,33,2364
40,-128,-8016,-87,84,36,-7426,-13568,-14595,2343,1451,-119,7322,33,2374
40,-128,-8016,-87,84,36,-7426,-13568,-14595,2343,1451,-119,7322,33,2374
-8,-168,-8056,-87,84,30,-7170,-11776,-14339,2343,1451,-119,7322,33,2374
-8,-168,-8056,-87,84,30,-7170,-11776,-14339,2343,1451,-119,7322,33,2374
-8,-168,-8056,-87,84,30,-7170,-11776,-14339,2343,1451,-119,7322,33,2374
-8,-168,-8056,-87,84,30,-7170,-11776,-14339,2343,1451,-119,7322,33,2374
-8,-168,-8056,-87,84,30,-7170,-11776,-14339,2343,1451,-119,7322,33,2374
-8,-168,-8056,-87,84,30,-7170,-11776,-14339,2343,1451,-119,7322,33,2374
-8,-168,-8056,-87,84,30,-7170,-11776,-14339,2343,1451,-119,7322,33,2374
-8,-168,-8056,-87,84,30,-7170,-11776,-14339,2343,1451,-119,7322,33,2374
-8,-168,-8056,-87,84,30,-7170,-11776,-14339,2361,1473,-115,7322,33,2374
-8,-168,-8056,-87,84,30,-7170,-11776,-14339,2361,1473,-115,7322,33,2374
0,-140,-7956,-72,72,19,-7170,-11264,-12291,2361,1473,-115,7322,33,2374
0,-140,-7956,-72,72,19,-7170,-11264,-12291,2361,1473,-115,7322,33,2374
0,-140,-7956,-72,72,19,-7170,-11264,-12291,2361,1473,-115,7322,33,2374
0,-140,-7956,-72,72,19,-7170,-11264,-12291,2361,1473,-115,7322,33,2374
0,-140,-7956,-72,72,19,-7170,-11264,-12291,2361,1473,-115,7322,33,2374
0,-140,-7956,-72,72,19,-7170,-11264,-12291,2361,1473,-115,7322,33,2374
0,-140,-7956,-72,72,19,-7170,-11264,-12291,2361,1473,-115,7322,33,2374
0,-140,-7956,-72,72,19,-7170,-11264,-12291,2361,1473,-115,7322,33,2374
0,-140,-7956,-72,72,19,-7170,-11264,-12291,2361,1473,-115,7322,33,2374
0,-140,-7956,-72,72,19,-7170,-11264,-12291,2361,1473,-115,7322,33,2374
0,-140,-7956,-72,72,19,-7170,-11264,-12291,2361,1473,-115,7322,33,2374
0,-140,-7956,-72,72,19,-7170,-11264,-12291,2361,1473,-115,7322,33,2374
0,-140,-7956,-72,72,19,-7170,-11264,-12291,2361,1473,-115,7322,33,2374
0,-140,-7956,-72,72,19,-7170,-11264,-12291,2361,1473,-115,7322,33,2374
0,-140,-7956,-72,72,19,-7170,-11264,-12291,2361,1473,-115,7322,33,2374
0,-140,-7956,-72,72,19,-7170,-11264,-12291,2361,1473,-115,7322,33,2374
0,-140,-7956,-72,72,19,-7170,-11264,-12291,2361,1473,-115,7322,33,2374
0,-140,-7956,-72,72,19,-7170,-11264,-12291,2361,1473,-115,7322,33,2374
0,-140,-7956,-72,72,19,-7170,-11264,-12291,2361,1473,-115,7322,33,2374
0,-140,-7956,-72,72,19,-7170,-11264,-12291,2361,1473,-115,7322,33,2374
0,-140,-7956,-72,72,19,-7170,-11264,-12291,2361,1473,-115,7322,33,2374
0,-140,-7956,-72,72,19,-7170,-11264,-12291,2361,1473,-115,7322,33,2374
0,-140,-7956,-72,72,19,-7170,-11264,-12291,2361,1473,-115,7322,33,2374
0,-140,-7956,-72,72,19,-7170,-11264,-12291,2361,1473,-115,7322,33,2374
0,-140,-7956,-72,72,19,-7170,-11264,-12291,2361,1473,-115,7322,33,2374
0,-140,-7956,-72,72,19,-7170,-11264,-12291,2361,1473,-115,7322,33,2374
8,-192,-8012,-68,83,11,-7938,-11520,-14595,2369,1478,-123,7322,33,2374
8,-192,-8012,-68,83,11,-7938,-11520,-14595,2369,1478,-123,7322,33,2374
8,-192,-8012,-68,83,11,-7938,-11520,-14595,2369,1478,-123,7322,33,2374
80,-164,-8008,-66,93,39,-10498,-12800,-13315,2365,1471,-72,7322,33,2374
-12,-224,-8040,-92,96,5,-7682,-8448,-14339,2350,1451,-72,7322,33,2374
-12,-224,-8040,-92,96,5,-7682,-8448,-14339,2350,1451,-72,7322,33,2374
-20,-84,-7976,-53,79,21,-6402,-9984,-16643,2350,1451,-72,7322,33,2374
-20,-84,-7976,-53,79,21,-6402,-9984,-16643,2347,1458,-109,7322,33,2345
-20,-84,-7976,-53,79,21,-6402,-9984,-16643,2347,1458,-109,7322,33,2345
-20,-84,-7976,-53,79,21,-6402,-9984,-16643,2347,1458,-109,7322,33,2345
-20,-84,-7976,-53,79,21,-6402,-9984,-16643,2347,1458,-109,7322,33,2345
-20,-84,-7976,-53,79,21,-6402,-9984,-16643,2347,1458,-109,7322,33,2345
-20,-84,-7976,-53,79,21,-6402,-9984,-16643,2347,1458,-109,7322,33,2345
-44,-156,-8008,-69,82,30,-7938,-10240,-12547,2354,1447,-121,7322,33,2374
-44,-128,-8024,-64,104,38,-7170,-10496,-13571,2354,1447,-121,7322,33,2374
-44,-128,-8024,-64,104,38,-7170,-10496,-13571,2354,1447,-121,7322,33,2374
-44,-128,-8024,-64,104,38,-7170,-10496,-13571,2354,1447,-121,7322,33,2374
-44,-128,-8024,-64,104,38,-7170,-10496,-13571,2354,1447,-121,7322,33,2374
-44,-128,-8024,-64,104,38,-7170,-10496,-13571,2354,1447,-121,7322,33,2374
-44,-128,-8024,-64,104,38,-7170,-10496,-13571,2354,1447,-121,7322,33,2374
-44,-128,-8024,-64,104,38,-7170,-10496,-13571,2354,1447,-121,7322,33,2374
-44,-128,-8024,-64,104,38,-7170,-10496,-13571,2354,1447,-121,7322,33,2374
-44,-128,-8024,-64,104,38,-7170,-10496,-13571,2354,1447,-121,7322,33,2374
-44,-128,-8024,-64,104,38,-7170,-10496,-13571,2354,1447,-121,7322,33,2374
-44,-128,-8024,-64,104,38,-7170,-10496,-13571,2354,1447,-121,7322,33,2374
-44,-128,-8024,-64,104,38,-7170,-10496,-13571,2354,1447,-121,7322,33,2374
-44,-128,-8024,-64,104,38,-7170,-10496,-13571,2354,1447,-121,7322,33,2374
-44,-128,-8024,-64,104,38,-7170,-10496,-13571,2354,1447,-121,7322,33,2374
-12,-56,-7980,-43,77,27,-8450,-11264,-13059,2361,1426,-92,7322,33,2402
-12,-56,-7980,-43,77,27,-8450,-11264,-13059,2361,1426,-92,7322,33,2402
-12,-56,-7980,-43,77,27,-8450,-11264,-13059,2361,1426,-92,7322,33,2402
-12,-56,-7980,-43,77,27,-8450,-11264,-13059,2361,1426,-92,7322,33,2402
-12,-56,-7980,-43,77,27,-8450,-11264,-13059,2361,1426,-92,7322,33,2402
-12,-56,-7980,-43,77,27,-8450,-11264,-13059,2361,1426,-92,7322,33,2402
-12,-56,-7980,-43,77,27,-8450,-11264,-13059,2361,1426,-92,7322,33,2402
-12,-56,-7980,-43,77,27,-8450,-11264,-13059,2361,1426,-92,7322,33,2402
32,-240,-7968,-60,80,19,-7938,-12288,-13827,2361,1426,-92,7322,33,2402
32,-240,-7968,-60,80,19,-7938,-12288,-13827,2361,1426,-92,7322,33,2402
32,-240,-7968,-60,80,19,-7938,-12288,-13827,2361,1426,-92,7322,33,2402
32,-240,-7968,-60,80,19,-7938,-12288,-13827,2361,1426,-92,7322,33,2402
32,-240,-7968,-60,80,19,-7938,-12288,-13827,2361,1426,-92,7322,33,2402
32,-240,-7968,-60,80,19,-7938,-12288,-13827,2361,1426,-92,7322,33,2402
32,-240,-7968,-60,80,19,-7938,-12288,-13827,2361,1426,-92,7322,33,2402
32,-240,-7968,-60,80,19,-7938,-12288,-13827,2361,1426,-92,7322,33,2402
32,-240,-7968,-60,80,19,-7938,-12288,-13827,2361,1426,-92,7322,33,2402
32,-240,-7968,-60,80,19,-7938,-12288,-13827,2352,1474,-10,7322,33,2402
32,-240,-7968,-60,80,19,-7938,-12288,-13827,2352,1474,-10,7322,33,2374
32,-240,-7968,-60,80,19,-7938,-12288,-13827,2352,1474,-10,7322,33,2374
48,-168,-7972,-77,71,29,-6402,-11776,-13059,2352,1474,-10,7322,33,2374
48,-168,-7972,-77,71,29,-6402,-11776,-13059,2352,1474,-10,7322,33,2374
48,-168,-7972,-77,71,29,-6402,-11776,-13059,2352,1474,-10,7322,33,2374
48,-168,-7972,-77,71,29,-6402,-11776,-13059,2352,1474,-10,7322,33,2374
12,-100,-8024,-59,88,24,-7682,-10496,-16131,2376,1486,-76,7322,33,2374
12,-100,-8024,-59,88,24,-7682,-10496,-16131,2376,1486,-76,7322,33,2374
12,-100,-8024,-59,88,24,-7682,-10496,-16131,2360,1488,-95,7322,33,2374
44,-96,-8012,-71,84,18,-4866,-12288,-13827,2360,1488,-95,7322,33,2364
44,-96,-8012,-71,84,18,-4866,-12288,-13827,2360,1488,-95,7322,33,2364
44,-96,-8012,-71,84,18,-4866,-12288,-13827,2366,1481,-75,7322,33,2392
20,-88,-7944,-58,93,12,-7426,-11520,-13315,2366,1481,-75,7322,33,2392
20,-88,-7944,-58,93,12,-7426,-11520,-13315,2366,1481,-75,7322,33,2392
20,-88,-7944,-58,93,12,-7426,-11520,-13315,2366,1481,-75,7322,33,2392
20,-88,-7944,-58,93,12,-7426,-11520,-13315,2366,1481,-75,7322,33,2392
20,-88,-7944,-58,93,12,-7426,-11520,-13315,2366,1481,-75,7322,33,2392
20,-88,-7944,-58,93,12,-7426,-11520,-13315,2366,1481,-75,7322,33,2392
20,-88,-7944,-58,93,12,-7426,-11520,-13315,2366,1481,-75,7322,33,2392
20,-88,-7944,-58,93,12,-7426,-11520,-13315,2366,1481,-75,7322,33,2392
20,-88,-7944,-58,93,12,-7426,-11520,-13315,2366,1481,-75,7322,33,2392
20,-88,-7944,-58,93,12,-7426,-11520,-13315,2366,1481,-75,7322,33,2392
8,-152,-8068,-67,74,12,-8962,-11264,-14339,2366,1481,-75,7322,33,2392
8,-152,-8068,-67,74,12,-8962,-11264,-14339,2363,1481,-110,7322,33,2355
8,-152,-8068,-67,74,12,-8962,-11264,-14339,2363,1481,-110,7322,33,2355
8,-152,-8068,-67,74,12,-8962,-11264,-14339,2363,1481,-110,7322,33,2355
8,-152,-8068,-67,74,12,-8962,-11264,-14339,2363,1481,-110,7322,33,2355
8,-152,-8068,-67,74,12,-8962,-11264,-14339,2363,1481,-110,7322,33,2355
8,-152,-8068,-67,74,12,-8962,-11264,-14339,2363,1481,-110,7322,33,2355
8,-152,-8068,-67,74,12,-8962,-11264,-14339,2363,1481,-110,7322,33,2355
8,-152,-8068,-67,74,12,-8962,-11264,-14339,2363,1481,-110,7322,33,2355
8,-152,-8068,-67,74,12,-8962,-11264,-14339,2363,1481,-110,7322,33,2355
8,-152,-8068,-67,74,12,-8962,-11264,-14339,2363,1481,-110,7322,33,2355
8,-152,-8068,-67,74,12,-8962,-11264,-14339,2363,1481,-110,7322,33,2355
8,-152,-8068,-67,74,12,-8962,-11264,-14339,2363,1481,-110,7322,33,2355
8,-152,-8068,-67,74,12,-8962,-11264,-14339,2363,1481,-110,7322,33,2355
8,-152,-8068,-67,74,12,-8962,-11264,-14339,2363,1481,-110,7322,33,2355
4,-136,-8008,-90,79,17,-6402,-10496,-14851,2363,1481,-110,7322,33,2355
4,-136,-8008,-90,79,17,-6402,-10496,-14851,2363,1481,-110,7322,33,2355
4,-136,-8008,-90,79,17,-6402,-10496,-14851,2363,1481,-110,7322,33,2355
4,-136,-8008,-90,79,17,-6402,-10496,-14851,2363,1481,-110,7322,33,2355
4,-136,-8008,-90,79,17,-6402,-10496,-14851,2363,1481,-110,7322,33,2355
4,-136,-8008,-90,79,17,-6402,-10496,-14851,2363,1481,-110,7322,33,2355
4,-136,-8008,-90,79,17,-6402,-10496,-14851,2363,1481,-110,7322,33,2355
4,-136,-8008,-90,79,17,-6402,-10496,-14851,2363,1481,-110,7322,33,2355
4,-136,-8008,-90,79,17,-6402,-10496,-14851,2338,1459,-90,7322,33,2355
4,-136,-8008,-90,79,17,-6402,-10496,-14851,2338,1459,-90,7322,33,2374
4,-136,-8008,-90,79,17,-6402,-10496,-14851,2338,1459,-90,7322,33,2374
4,-136,-8008,-90,79,17,-6402,-10496,-14851,2338,1459,-90,7322,33,2374
4,-136,-8008,-90,79,17,-6402,-10496,-14851,2338,1459,-90,7322,33,2374
4,-136,-8008,-90,79,17,-6402,-10496,-14851,2338,1459,-90,7322,33,2374
4,-136,-8008,-90,79,17,-6402,-10496,-14851,2338,1459,-90,7322,33,2374
-4,-192,-8044,-77,108,49,-8706,-12800,-12035,2338,1459,-90,7322,33,2374
-4,-192,-8044,-77,108,49,-8706,-12800,-12035,2338,1459,-90,7322,33,2374
-4,-192,-8044,-77,108,49,-8706,-12800,-12035,2338,1459,-90,7322,33,2374
-4,-192,-8044,-77,108,49,-8706,-12800,-12035,2338,1459,-90,7322,33,2374
-4,-192,-8044,-77,108,49,-8706,-12800,-12035,2338,1459,-90,7322,33,2374
-4,-192,-8044,-77,108,49,-8706,-12800,-12035,2338,1459,-90,7322,33,2374
-4,-192,-8044,-77,108,49,-8706,-12800,-12035,2338,1459,-90,7322,33,2374
-4,-192,-8044,-77,108,49,-8706,-12800,-12035,2338,1459,-90,7322,33,2374
-4,-192,-8044,-77,108,49,-8706,-12800,-12035,2338,1459,-90,7322,33,2374
-4,-192,-8044,-77,108,49,-8706,-12800,-12035,2338,1459,-90,7322,33,2374
-4,-192,-8044,-77,108,49,-8706,-12800,-12035,2338,1459,-90,7322,33,2374
-4,-192,-8044,-77,108,49,-8706,-12800,-12035,2338,1459,-90,7322,33,2374
-4,-192,-8044,-77,108,49,-8706,-12800,-12035,2338,1459,-90,7322,33,2374
-4,-192,-8044,-77,108,49,-8706,-12800,-12035,2338,1459,-90,7322,33,2374
-4,-192,-8044,-77,108,49,-8706,-12800,-12035,2338,1459,-90,7322,33,2374
-4,-192,-8044,-77,108,49,-8706,-12800,-12035,2338,1459,-90,7322,33,2374
-4,-192,-8044,-77,108,49,-8706,-12800,-12035,2338,1459,-90,7322,33,2374
-4,-192,-8044,-77,108,49,-8706,-12800,-12035,2338,1459,-90,7322,33,2374
-4,-192,-8044,-77,108,49,-8706,-12800,-12035,2338,1459,-90,7322,33,2374
-4,-192,-8044,-77,108,49,-8706,-12800,-12035,2338,1459,-90,7322,33,2374
-4,-192,-8044,-77,108,49,-8706,-12800,-12035,2338,1459,-90,7322,33,2374
-4,-192,-8044,-77,108,49,-8706,-12800,-12035,2338,1459,-90,7322,33,2374
-4,-192,-8044,-77,108,49,-8706,-12800,-12035,2338,1459,-90,7322,33,2374
-4,-192,-8044,-77,108,49,-8706,-12800,-12035,2338,1459,-90,7322,33,2374
-4,-192,-8044,-77,108,49,-8706,-12800,-12035,2338,1459,-90,7322,33,2374
-4,-192,-8044,-77,108,49,-8706,-12800,-12035,2338,1459,-90,7322,33,2374
-4,-192,-8044,-77,108,49,-8706,-12800,-12035,2338,1459,-90,7322,33,2374
-4,-192,-8044,-77,108,49,-8706,-12800,-12035,2338,1459,-90,7322,33,2374
-4,-192,-8044,-77,108,49,-8706,-12800,-12035,2338,1459,-90,7322,33,2374
-4,-192,-8044,-77,108,49,-8706,-12800,-12035,2338,1459,-90,7322,33,2374
-4,-192,-8044,-77,108,49,-8706,-12800,-12035,2338,1459,-90,7322,33,2374
-4,-192,-8044,-77,108,49,-8706,-12800,-12035,2338,1459,-90,7322,33,2374
-4,-192,-8044,-77,108,49,-8706,-12800,-12035,2338,1459,-90,7322,33,2374
-4,-192,-8044,-77,108,49,-8706,-12800,-12035,2338,1459,-90,7322,33,2374
-4,-192,-8044,-77,108,49,-8706,-12800,-12035,2338,1459,-90,7322,33,2374
-4,-192,-8044,-77,108,49,-8706,-12800,-12035,2347,1473,-64,7322,33,2374
28,-140,-8000,-72,96,39,-7170,-13312,-15619,2347,1473,-64,7322,33,2345
8,-124,-8024,-48,85,-2,-5890,-9216,-14339,2347,1473,-64,7322,33,2345
8,-124,-8024,-48,85,-2,-5890,-9216,-14339,2379,1489,-79,7322,33,2374
8,-124,-8024,-48,85,-2,-5890,-9216,-14339,2379,1489,-79,7322,33,2374
8,-124,-8024,-48,85,-2,-5890,-9216,-14339,2379,1489,-79,7322,33,2374
8,-124,-8024,-48,85,-2,-5890,-9216,-14339,2379,1489,-79,7322,33,2374
8,-124,-8024,-48,85,-2,-5890,-9216,-14339,2379,1489,-79,7322,33,2374
8,-124,-8024,-48,85,-2,-5890,-9216,-14339,2352,1453,-65,7322,33,2374
8,-124,-8024,-48,85,-2,-5890,-9216,-14339,2352,1453,-65,7322,33,2374
8,-124,-8024,-48,85,-2,-5890,-9216,-14339,2352,1453,-65,7322,33,2374
-20,-128,-8008,-44,82,34,-6402,-10496,-14851,2352,1453,-65,7322,33,2374
-20,-128,-8008,-44,82,34,-6402,-10496,-14851,2352,1453,-65,7322,33,2374
-20,-128,-8008,-44,82,34,-6402,-10496,-14851,2352,1453,-65,7322,33,2374
-20,-128,-8008,-44,82,34,-6402,-10496,-14851,2352,1453,-65,7322,33,2374
-20,-128,-8008,-44,82,34,-6402,-10496,-14851,2352,1453,-65,7322,33,2374
-20,-128,-8008,-44,82,34,-6402,-10496,-14851,2352,1453,-65,7322,33,2374
-20,-128,-8008,-44,82,34,-6402,-10496,-14851,2352,1453,-65,7322,33,2374
-20,-128,-8008,-44,82,34,-6402,-10496,-14851,2352,1453,-65,7322,33,2374
-20,-128,-8008,-44,82,34,-6402,-10496,-14851,2352,1453,-65,7322,33,2374
-20,-128,-8008,-44,82,34,-6402,-10496,-14851,2373,1501,-130,7322,33,2374
40,-148,-7992,-38,76,37,-7682,-11264,-13571,2373,1501,-130,7322,33,2374
40,-148,-7992,-38,76,37,-7682,-11264,-13571,2373,1501,-130,7322,33,2374
40,-148,-7992,-38,76,37,-7682,-11264,-13571,2373,1501,-130,7322,33,2374
40,-148,-7992,-38,76,37,-7682,-11264,-13571,2373,1501,-130,7322,33,2374
40,-148,-7992,-38,76,37,-7682,-11264,-13571,2373,1501,-130,7322,33,2374
40,-148,-7992,-38,76,37,-7682,-11264,-13571,2373,1501,-130,7322,33,2374
40,-148,-7992,-38,76,37,-7682,-11264,-13571,2373,1501,-130,7322,33,2374
40,-148,-7992,-38,76,37,-7682,-11264,-13571,2373,1501,-130,7322,33,2374
40,-148,-7992,-38,76,37,-7682,-11264,-13571,2373,1501,-130,7322,33,2374
40,-148,-7992,-38,76,37,-7682,-11264,-13571,2373,1501,-130,7322,33,2374
40,-148,-7992,-38,76,37,-7682,-11264,-13571,2373,1501,-130,7322,33,2374
40,-148,-7992,-38,76,37,-7682,-11264,-13571,2373,1501,-130,7322,33,2374
-24,-164,-8000,-92,81,43,-11266,-11520,-15107,2373,1501,-130,7322,33,2374
-24,-164,-8000,-92,81,43,-11266,-11520,-15107,2373,1501,-130,7322,33,2374
-24,-164,-8000,-92,81,43,-11266,-11520,-15107,2373,1501,-130,7322,33,2374
-24,-164,-8000,-92,81,43,-11266,-11520,-15107,2373,1449,-83,7322,33,2411
-24,-164,-8000,-92,81,43,-11266,-11520,-15107,2373,1449,-83,7322,33,2411
-24,-164,-8000,-92,81,43,-11266,-11520,-15107,2373,1449,-83,7322,33,2411
-24,-164,-8000,-92,81,43,-11266,-11520,-15107,2373,1449,-83,7322,33,2411
-24,-164,-8000,-92,81,43,-11266,-11520,-15107,2373,1449,-83,7322,33,2411
52,-124,-8008,-55,66,24,-7682,-11776,-14851,2373,1449,-83,7322,33,2411
52,-124,-8008,-55,66,24,-7682,-11776,-14851,2373,1449,-83,7322,33,2411
52,-124,-8008,-55,66,24,-7682,-11776,-14851,2373,1449,-83,7322,33,2411
